#T[Ga]	 a[RE]		 obliq_E[deg]	 obliq_M[deg]	 inc_M[deg]
0.000	 60.142611	 23.254500	 6.626660	 5.145000 
0.001	 60.136601	 23.251864	 6.627394	 5.145129 
0.002	 60.130591	 23.249229	 6.628129	 5.145257 
0.003	 60.124581	 23.246593	 6.628864	 5.145386 
0.004	 60.118570	 23.243958	 6.629600	 5.145514 
0.005	 60.112560	 23.241323	 6.630336	 5.145643 
0.006	 60.106550	 23.238688	 6.631072	 5.145772 
0.007	 60.100540	 23.236053	 6.631809	 5.145900 
0.008	 60.094530	 23.233419	 6.632546	 5.146029 
0.009	 60.088520	 23.230786	 6.633283	 5.146157 
0.010	 60.082510	 23.228153	 6.634021	 5.146286 
0.011	 60.075766	 23.225199	 6.634839	 5.146423 
0.012	 60.069022	 23.222246	 6.635668	 5.146567 
0.013	 60.062277	 23.219293	 6.636498	 5.146712 
0.014	 60.055533	 23.216342	 6.637327	 5.146856 
0.015	 60.048789	 23.213392	 6.638157	 5.147001 
0.016	 60.042045	 23.210443	 6.638988	 5.147145 
0.017	 60.035301	 23.207495	 6.639819	 5.147290 
0.018	 60.028557	 23.204549	 6.640651	 5.147434 
0.019	 60.021813	 23.201603	 6.641483	 5.147579 
0.020	 60.013600	 23.198018	 6.642477	 5.147739 
0.021	 60.007192	 23.195222	 6.643293	 5.147896 
0.022	 60.000799	 23.192433	 6.644084	 5.148033 
0.023	 59.994423	 23.189653	 6.644873	 5.148170 
0.024	 59.988063	 23.186881	 6.645660	 5.148307 
0.025	 59.981719	 23.184116	 6.646445	 5.148443 
0.026	 59.975391	 23.181360	 6.647229	 5.148579 
0.027	 59.969079	 23.178611	 6.648012	 5.148715 
0.028	 59.962783	 23.175870	 6.648793	 5.148850 
0.029	 59.956503	 23.173137	 6.649572	 5.148985 
0.030	 59.950239	 23.170411	 6.650350	 5.149120 
0.031	 59.943991	 23.167694	 6.651126	 5.149254 
0.032	 59.937758	 23.164984	 6.651901	 5.149388 
0.033	 59.931542	 23.162281	 6.652674	 5.149522 
0.034	 59.925341	 23.159587	 6.653446	 5.149655 
0.035	 59.919156	 23.156899	 6.654216	 5.149788 
0.036	 59.912986	 23.154220	 6.654985	 5.149921 
0.037	 59.906833	 23.151548	 6.655751	 5.150053 
0.038	 59.900694	 23.148883	 6.656517	 5.150185 
0.039	 59.894572	 23.146226	 6.657281	 5.150317 
0.040	 59.888464	 23.143576	 6.658043	 5.150449 
0.041	 59.882373	 23.140934	 6.658804	 5.150580 
0.042	 59.876296	 23.138300	 6.659563	 5.150711 
0.043	 59.870235	 23.135672	 6.660321	 5.150841 
0.044	 59.864189	 23.133052	 6.661077	 5.150971 
0.045	 59.858159	 23.130440	 6.661832	 5.151101 
0.046	 59.852143	 23.127835	 6.662585	 5.151231 
0.047	 59.846143	 23.125237	 6.663337	 5.151360 
0.048	 59.840158	 23.122646	 6.664087	 5.151489 
0.049	 59.834188	 23.120063	 6.664836	 5.151618 
0.050	 59.828234	 23.117487	 6.665583	 5.151746 
0.051	 59.822294	 23.114919	 6.666328	 5.151874 
0.052	 59.816369	 23.112357	 6.667073	 5.152002 
0.053	 59.810459	 23.109803	 6.667815	 5.152129 
0.054	 59.804564	 23.107256	 6.668556	 5.152256 
0.055	 59.798684	 23.104716	 6.669296	 5.152383 
0.056	 59.792818	 23.102183	 6.670034	 5.152510 
0.057	 59.786968	 23.099657	 6.670771	 5.152636 
0.058	 59.781132	 23.097139	 6.671506	 5.152762 
0.059	 59.775312	 23.094627	 6.672240	 5.152887 
0.060	 59.769506	 23.092123	 6.672972	 5.153013 
0.061	 59.763715	 23.089626	 6.673702	 5.153138 
0.062	 59.757939	 23.087136	 6.674431	 5.153262 
0.063	 59.752178	 23.084653	 6.675159	 5.153387 
0.064	 59.746432	 23.082177	 6.675885	 5.153511 
0.065	 59.740701	 23.079709	 6.676610	 5.153635 
0.066	 59.734986	 23.077248	 6.677332	 5.153758 
0.067	 59.729286	 23.074794	 6.678054	 5.153881 
0.068	 59.723602	 23.072348	 6.678773	 5.154004 
0.069	 59.717935	 23.069909	 6.679491	 5.154126 
0.070	 59.712283	 23.067478	 6.680207	 5.154249 
0.071	 59.706648	 23.065055	 6.680922	 5.154370 
0.072	 59.701031	 23.062640	 6.681634	 5.154492 
0.073	 59.695431	 23.060233	 6.682345	 5.154613 
0.074	 59.689850	 23.057835	 6.683054	 5.154734 
0.075	 59.684289	 23.055446	 6.683760	 5.154854 
0.076	 59.678746	 23.053065	 6.684465	 5.154974 
0.077	 59.673223	 23.050694	 6.685167	 5.155093 
0.078	 59.667720	 23.048332	 6.685867	 5.155212 
0.079	 59.662233	 23.045977	 6.686565	 5.155331 
0.080	 59.656761	 23.043630	 6.687262	 5.155449 
0.081	 59.651297	 23.041286	 6.687958	 5.155567 
0.082	 59.645841	 23.038947	 6.688653	 5.155685 
0.083	 59.640393	 23.036611	 6.689348	 5.155803 
0.084	 59.634952	 23.034280	 6.690042	 5.155921 
0.085	 59.629518	 23.031952	 6.690735	 5.156038 
0.086	 59.624091	 23.029627	 6.691428	 5.156156 
0.087	 59.618669	 23.027305	 6.692121	 5.156273 
0.088	 59.613253	 23.024986	 6.692813	 5.156390 
0.089	 59.607841	 23.022670	 6.693505	 5.156507 
0.090	 59.602433	 23.020356	 6.694196	 5.156624 
0.091	 59.597030	 23.018044	 6.694888	 5.156741 
0.092	 59.591630	 23.015735	 6.695579	 5.156858 
0.093	 59.586233	 23.013427	 6.696270	 5.156975 
0.094	 59.580839	 23.011122	 6.696961	 5.157092 
0.095	 59.575447	 23.008818	 6.697653	 5.157208 
0.096	 59.570059	 23.006516	 6.698344	 5.157325 
0.097	 59.564673	 23.004215	 6.699035	 5.157442 
0.098	 59.559290	 23.001917	 6.699726	 5.157558 
0.099	 59.553910	 22.999620	 6.700417	 5.157675 
0.100	 59.548533	 22.997325	 6.701108	 5.157791 
0.101	 59.543159	 22.995032	 6.701799	 5.157908 
0.102	 59.537789	 22.992742	 6.702489	 5.158024 
0.103	 59.532423	 22.990453	 6.703180	 5.158140 
0.104	 59.527062	 22.988168	 6.703870	 5.158256 
0.105	 59.521705	 22.985884	 6.704560	 5.158373 
0.106	 59.516354	 22.983604	 6.705249	 5.158489 
0.107	 59.511007	 22.981326	 6.705939	 5.158604 
0.108	 59.505667	 22.979052	 6.706627	 5.158720 
0.109	 59.500333	 22.976780	 6.707316	 5.158836 
0.110	 59.495005	 22.974512	 6.708004	 5.158951 
0.111	 59.489683	 22.972247	 6.708691	 5.159067 
0.112	 59.484368	 22.969986	 6.709378	 5.159182 
0.113	 59.479060	 22.967728	 6.710064	 5.159297 
0.114	 59.473759	 22.965474	 6.710750	 5.159412 
0.115	 59.468465	 22.963223	 6.711435	 5.159527 
0.116	 59.463179	 22.960976	 6.712119	 5.159642 
0.117	 59.457899	 22.958732	 6.712803	 5.159757 
0.118	 59.452627	 22.956492	 6.713486	 5.159871 
0.119	 59.447362	 22.954256	 6.714168	 5.159986 
0.120	 59.442104	 22.952024	 6.714850	 5.160100 
0.121	 59.436854	 22.949795	 6.715532	 5.160214 
0.122	 59.431611	 22.947570	 6.716212	 5.160328 
0.123	 59.426374	 22.945348	 6.716892	 5.160441 
0.124	 59.421144	 22.943129	 6.717572	 5.160555 
0.125	 59.415920	 22.940914	 6.718251	 5.160668 
0.126	 59.410701	 22.938701	 6.718930	 5.160782 
0.127	 59.405488	 22.936491	 6.719608	 5.160895 
0.128	 59.400278	 22.934283	 6.720286	 5.161008 
0.129	 59.395071	 22.932077	 6.720964	 5.161121 
0.130	 59.389867	 22.929873	 6.721642	 5.161235 
0.131	 59.384663	 22.927669	 6.722320	 5.161348 
0.132	 59.379460	 22.925466	 6.722998	 5.161461 
0.133	 59.374254	 22.923263	 6.723677	 5.161574 
0.134	 59.369046	 22.921059	 6.724357	 5.161687 
0.135	 59.363831	 22.918853	 6.725038	 5.161800 
0.136	 59.358607	 22.916643	 6.725720	 5.161914 
0.137	 59.353370	 22.914429	 6.726404	 5.162027 
0.138	 59.348116	 22.912208	 6.727091	 5.162141 
0.139	 59.342842	 22.909979	 6.727780	 5.162256 
0.140	 59.337542	 22.907740	 6.728474	 5.162371 
0.141	 59.332213	 22.905489	 6.729171	 5.162487 
0.142	 59.326849	 22.903224	 6.729873	 5.162603 
0.143	 59.321448	 22.900943	 6.730580	 5.162720 
0.144	 59.316005	 22.898646	 6.731293	 5.162838 
0.145	 59.310518	 22.896330	 6.732012	 5.162957 
0.146	 59.304988	 22.893997	 6.732737	 5.163077 
0.147	 59.299413	 22.891646	 6.733469	 5.163198 
0.148	 59.293795	 22.889277	 6.734206	 5.163319 
0.149	 59.288136	 22.886892	 6.734949	 5.163442 
0.150	 59.282439	 22.884491	 6.735698	 5.163566 
0.151	 59.276709	 22.882077	 6.736451	 5.163690 
0.152	 59.270949	 22.879651	 6.737209	 5.163815 
0.153	 59.265166	 22.877216	 6.737970	 5.163941 
0.154	 59.259364	 22.874773	 6.738734	 5.164067 
0.155	 59.253549	 22.872326	 6.739501	 5.164194 
0.156	 59.247727	 22.869876	 6.740268	 5.164321 
0.157	 59.241902	 22.867426	 6.741037	 5.164448 
0.158	 59.236080	 22.864978	 6.741806	 5.164574 
0.159	 59.230266	 22.862534	 6.742574	 5.164701 
0.160	 59.224464	 22.860096	 6.743341	 5.164828 
0.161	 59.218678	 22.857665	 6.744106	 5.164954 
0.162	 59.212911	 22.855242	 6.744869	 5.165080 
0.163	 59.207166	 22.852830	 6.745630	 5.165206 
0.164	 59.201445	 22.850428	 6.746388	 5.165331 
0.165	 59.195750	 22.848038	 6.747143	 5.165455 
0.166	 59.190081	 22.845659	 6.747894	 5.165579 
0.167	 59.184438	 22.843292	 6.748643	 5.165703 
0.168	 59.178821	 22.840937	 6.749389	 5.165825 
0.169	 59.173228	 22.838592	 6.750132	 5.165948 
0.170	 59.167659	 22.836257	 6.750872	 5.166070 
0.171	 59.162110	 22.833932	 6.751609	 5.166191 
0.172	 59.156580	 22.831616	 6.752345	 5.166312 
0.173	 59.151066	 22.829307	 6.753078	 5.166432 
0.174	 59.145565	 22.827003	 6.753811	 5.166553 
0.175	 59.140073	 22.824704	 6.754542	 5.166673 
0.176	 59.134587	 22.822408	 6.755273	 5.166793 
0.177	 59.129103	 22.820114	 6.756004	 5.166912 
0.178	 59.123617	 22.817819	 6.756735	 5.167032 
0.179	 59.118126	 22.815523	 6.757468	 5.167152 
0.180	 59.112625	 22.813224	 6.758202	 5.167272 
0.181	 59.107112	 22.810920	 6.758938	 5.167393 
0.182	 59.101584	 22.808609	 6.759676	 5.167513 
0.183	 59.096036	 22.806292	 6.760417	 5.167634 
0.184	 59.090467	 22.803966	 6.761161	 5.167756 
0.185	 59.084873	 22.801631	 6.761909	 5.167878 
0.186	 59.079254	 22.799285	 6.762661	 5.168001 
0.187	 59.073608	 22.796929	 6.763417	 5.168124 
0.188	 59.067932	 22.794562	 6.764177	 5.168248 
0.189	 59.062228	 22.792182	 6.764941	 5.168372 
0.190	 59.056494	 22.789791	 6.765710	 5.168497 
0.191	 59.050730	 22.787389	 6.766483	 5.168623 
0.192	 59.044937	 22.784975	 6.767260	 5.168749 
0.193	 59.039117	 22.782550	 6.768042	 5.168877 
0.194	 59.033270	 22.780115	 6.768827	 5.169004 
0.195	 59.027399	 22.777670	 6.769616	 5.169132 
0.196	 59.021506	 22.775217	 6.770409	 5.169261 
0.197	 59.015592	 22.772756	 6.771205	 5.169391 
0.198	 59.009662	 22.770289	 6.772003	 5.169520 
0.199	 59.003717	 22.767816	 6.772804	 5.169650 
0.200	 58.997760	 22.765339	 6.773607	 5.169781 
0.201	 58.991795	 22.762860	 6.774411	 5.169911 
0.202	 58.985823	 22.760378	 6.775217	 5.170042 
0.203	 58.979848	 22.757896	 6.776024	 5.170173 
0.204	 58.973873	 22.755414	 6.776831	 5.170304 
0.205	 58.967900	 22.752934	 6.777639	 5.170435 
0.206	 58.961932	 22.750456	 6.778446	 5.170566 
0.207	 58.955971	 22.747982	 6.779253	 5.170696 
0.208	 58.950021	 22.745514	 6.780058	 5.170827 
0.209	 58.944084	 22.743051	 6.780863	 5.170957 
0.210	 58.938163	 22.740596	 6.781665	 5.171087 
0.211	 58.932260	 22.738149	 6.782466	 5.171217 
0.212	 58.926379	 22.735712	 6.783264	 5.171346 
0.213	 58.920521	 22.733285	 6.784060	 5.171475 
0.214	 58.914689	 22.730870	 6.784852	 5.171603 
0.215	 58.908887	 22.728467	 6.785641	 5.171731 
0.216	 58.903118	 22.726079	 6.786426	 5.171858 
0.217	 58.897384	 22.723705	 6.787206	 5.171984 
0.218	 58.891688	 22.721349	 6.787982	 5.172110 
0.219	 58.886035	 22.719011	 6.788753	 5.172234 
0.220	 58.880428	 22.716692	 6.789517	 5.172358 
0.221	 58.874871	 22.714395	 6.790275	 5.172481 
0.222	 58.869368	 22.712120	 6.791026	 5.172602 
0.223	 58.863923	 22.709870	 6.791770	 5.172722 
0.224	 58.858541	 22.707647	 6.792506	 5.172841 
0.225	 58.853226	 22.705452	 6.793232	 5.172959 
0.226	 58.847983	 22.703287	 6.793950	 5.173075 
0.227	 58.842817	 22.701154	 6.794657	 5.173189 
0.228	 58.837734	 22.699057	 6.795353	 5.173302 
0.229	 58.832739	 22.696996	 6.796038	 5.173413 
0.230	 58.827837	 22.694973	 6.796710	 5.173521 
0.231	 58.823033	 22.692992	 6.797370	 5.173628 
0.232	 58.818333	 22.691054	 6.798015	 5.173733 
0.233	 58.813741	 22.689161	 6.798646	 5.173835 
0.234	 58.809261	 22.687315	 6.799262	 5.173934 
0.235	 58.804898	 22.685517	 6.799862	 5.174032 
0.236	 58.800655	 22.683769	 6.800446	 5.174126 
0.237	 58.796534	 22.682072	 6.801013	 5.174218 
0.238	 58.792539	 22.680426	 6.801563	 5.174308 
0.239	 58.788670	 22.678833	 6.802097	 5.174394 
0.240	 58.784927	 22.677292	 6.802613	 5.174478 
0.241	 58.781310	 22.675804	 6.803112	 5.174559 
0.242	 58.777816	 22.674366	 6.803594	 5.174637 
0.243	 58.774443	 22.672978	 6.804060	 5.174713 
0.244	 58.771186	 22.671638	 6.804509	 5.174786 
0.245	 58.768040	 22.670344	 6.804944	 5.174856 
0.246	 58.765000	 22.669093	 6.805364	 5.174924 
0.247	 58.762058	 22.667884	 6.805771	 5.174990 
0.248	 58.759208	 22.666712	 6.806164	 5.175054 
0.249	 58.756440	 22.665574	 6.806547	 5.175116 
0.250	 58.753747	 22.664467	 6.806919	 5.175176 
0.251	 58.751118	 22.663386	 6.807282	 5.175234 
0.252	 58.748543	 22.662328	 6.807638	 5.175292 
0.253	 58.746014	 22.661289	 6.807988	 5.175348 
0.254	 58.743521	 22.660264	 6.808332	 5.175403 
0.255	 58.741056	 22.659252	 6.808672	 5.175458 
0.256	 58.738613	 22.658248	 6.809010	 5.175512 
0.257	 58.736183	 22.657250	 6.809345	 5.175566 
0.258	 58.733763	 22.656256	 6.809680	 5.175619 
0.259	 58.731347	 22.655264	 6.810013	 5.175672 
0.260	 58.728929	 22.654271	 6.810347	 5.175726 
0.261	 58.726506	 22.653276	 6.810682	 5.175779 
0.262	 58.724070	 22.652276	 6.811018	 5.175832 
0.263	 58.721616	 22.651269	 6.811357	 5.175886 
0.264	 58.719135	 22.650251	 6.811700	 5.175941 
0.265	 58.716617	 22.649218	 6.812047	 5.175996 
0.266	 58.714051	 22.648165	 6.812401	 5.176052 
0.267	 58.711423	 22.647087	 6.812764	 5.176109 
0.268	 58.708719	 22.645977	 6.813137	 5.176168 
0.269	 58.705921	 22.644830	 6.813523	 5.176228 
0.270	 58.703011	 22.643636	 6.813924	 5.176291 
0.271	 58.699970	 22.642389	 6.814343	 5.176357 
0.272	 58.696777	 22.641080	 6.814783	 5.176426 
0.273	 58.693411	 22.639701	 6.815247	 5.176498 
0.274	 58.689849	 22.638241	 6.815738	 5.176574 
0.275	 58.686067	 22.636691	 6.816259	 5.176655 
0.276	 58.682041	 22.635041	 6.816814	 5.176741 
0.277	 58.677745	 22.633281	 6.817406	 5.176833 
0.278	 58.673154	 22.631401	 6.818039	 5.176931 
0.279	 58.668242	 22.629390	 6.818716	 5.177036 
0.280	 58.662986	 22.627238	 6.819441	 5.177148 
0.281	 58.657359	 22.624935	 6.820218	 5.177268 
0.282	 58.651341	 22.622473	 6.821049	 5.177397 
0.283	 58.644908	 22.619842	 6.821938	 5.177534 
0.284	 58.638041	 22.617034	 6.822888	 5.177681 
0.285	 58.630722	 22.614042	 6.823901	 5.177837 
0.286	 58.622935	 22.610860	 6.824979	 5.178004 
0.287	 58.614665	 22.607482	 6.826126	 5.178182 
0.288	 58.605900	 22.603903	 6.827343	 5.178370 
0.289	 58.596632	 22.600120	 6.828630	 5.178569 
0.290	 58.586852	 22.596130	 6.829990	 5.178779 
0.291	 58.576557	 22.591932	 6.831424	 5.179001 
0.292	 58.565744	 22.587525	 6.832931	 5.179234 
0.293	 58.554415	 22.582910	 6.834512	 5.179479 
0.294	 58.542572	 22.578088	 6.836167	 5.179736 
0.295	 58.530221	 22.573062	 6.837896	 5.180003 
0.296	 58.517369	 22.567835	 6.839696	 5.180282 
0.297	 58.504026	 22.562411	 6.841569	 5.180572 
0.298	 58.490203	 22.556797	 6.843511	 5.180873 
0.299	 58.475914	 22.550996	 6.845522	 5.181184 
0.300	 58.461173	 22.545017	 6.847600	 5.181506 
0.301	 58.445999	 22.538865	 6.849742	 5.181837 
0.302	 58.430410	 22.532550	 6.851947	 5.182178 
0.303	 58.414425	 22.526080	 6.854211	 5.182528 
0.304	 58.398068	 22.519463	 6.856531	 5.182887 
0.305	 58.381360	 22.512710	 6.858905	 5.183254 
0.306	 58.364326	 22.505830	 6.861330	 5.183628 
0.307	 58.346993	 22.498835	 6.863802	 5.184010 
0.308	 58.329386	 22.491735	 6.866317	 5.184398 
0.309	 58.311534	 22.484542	 6.868872	 5.184792 
0.310	 58.293466	 22.477268	 6.871463	 5.185191 
0.311	 58.275210	 22.469925	 6.874085	 5.185595 
0.312	 58.256797	 22.462524	 6.876734	 5.186003 
0.313	 58.238257	 22.455079	 6.879407	 5.186414 
0.314	 58.219621	 22.447602	 6.882099	 5.186828 
0.315	 58.200920	 22.440105	 6.884806	 5.187244 
0.316	 58.182187	 22.432601	 6.887522	 5.187661 
0.317	 58.163453	 22.425104	 6.890243	 5.188079 
0.318	 58.144750	 22.417625	 6.892965	 5.188497 
0.319	 58.126110	 22.410178	 6.895683	 5.188913 
0.320	 58.107565	 22.402775	 6.898392	 5.189328 
0.321	 58.089147	 22.395429	 6.901088	 5.189741 
0.322	 58.070888	 22.388152	 6.903766	 5.190151 
0.323	 58.052820	 22.380958	 6.906420	 5.190557 
0.324	 58.034975	 22.373857	 6.909047	 5.190958 
0.325	 58.017382	 22.366863	 6.911641	 5.191354 
0.326	 58.000071	 22.359987	 6.914198	 5.191745 
0.327	 57.983074	 22.353240	 6.916713	 5.192129 
0.328	 57.966417	 22.346633	 6.919183	 5.192505 
0.329	 57.950128	 22.340177	 6.921602	 5.192874 
0.330	 57.934235	 22.333883	 6.923966	 5.193235 
0.331	 57.918761	 22.327759	 6.926272	 5.193586 
0.332	 57.903730	 22.321814	 6.928515	 5.193928 
0.333	 57.889165	 22.316058	 6.930693	 5.194260 
0.334	 57.875086	 22.310497	 6.932801	 5.194582 
0.335	 57.861509	 22.305138	 6.934837	 5.194892 
0.336	 57.848453	 22.299987	 6.936798	 5.195191 
0.337	 57.835930	 22.295049	 6.938682	 5.195478 
0.338	 57.823951	 22.290329	 6.940486	 5.195753 
0.339	 57.812525	 22.285829	 6.942210	 5.196016 
0.340	 57.801659	 22.281552	 6.943851	 5.196267 
0.341	 57.791356	 22.277498	 6.945409	 5.196505 
0.342	 57.781616	 22.273668	 6.946884	 5.196730 
0.343	 57.772438	 22.270060	 6.948276	 5.196943 
0.344	 57.763816	 22.266672	 6.949584	 5.197143 
0.345	 57.755743	 22.263500	 6.950811	 5.197331 
0.346	 57.748208	 22.260542	 6.951957	 5.197506 
0.347	 57.741198	 22.257790	 6.953025	 5.197670 
0.348	 57.734698	 22.255239	 6.954016	 5.197822 
0.349	 57.728690	 22.252882	 6.954932	 5.197963 
0.350	 57.723154	 22.250711	 6.955778	 5.198092 
0.351	 57.718069	 22.248717	 6.956555	 5.198212 
0.352	 57.713410	 22.246890	 6.957267	 5.198322 
0.353	 57.709154	 22.245222	 6.957919	 5.198422 
0.354	 57.705274	 22.243702	 6.958513	 5.198514 
0.355	 57.701743	 22.242318	 6.959054	 5.198597 
0.356	 57.698534	 22.241061	 6.959546	 5.198673 
0.357	 57.695621	 22.239920	 6.959992	 5.198742 
0.358	 57.692976	 22.238884	 6.960398	 5.198805 
0.359	 57.690573	 22.237943	 6.960767	 5.198862 
0.360	 57.688386	 22.237087	 6.961102	 5.198913 
0.361	 57.686390	 22.236305	 6.961409	 5.198960 
0.362	 57.684562	 22.235589	 6.961689	 5.199003 
0.363	 57.682878	 22.234930	 6.961947	 5.199043 
0.364	 57.681318	 22.234319	 6.962186	 5.199080 
0.365	 57.679860	 22.233749	 6.962409	 5.199114 
0.366	 57.678489	 22.233212	 6.962619	 5.199145 
0.367	 57.677188	 22.232703	 6.962818	 5.199176 
0.368	 57.675944	 22.232216	 6.963008	 5.199204 
0.369	 57.674745	 22.231747	 6.963191	 5.199232 
0.370	 57.673582	 22.231292	 6.963369	 5.199258 
0.371	 57.672447	 22.230848	 6.963542	 5.199284 
0.372	 57.671333	 22.230412	 6.963712	 5.199310 
0.373	 57.670235	 22.229983	 6.963879	 5.199335 
0.374	 57.669148	 22.229557	 6.964045	 5.199359 
0.375	 57.668068	 22.229135	 6.964209	 5.199384 
0.376	 57.666992	 22.228714	 6.964373	 5.199408 
0.377	 57.665916	 22.228293	 6.964537	 5.199432 
0.378	 57.664839	 22.227872	 6.964701	 5.199456 
0.379	 57.663758	 22.227449	 6.964866	 5.199481 
0.380	 57.662670	 22.227023	 6.965031	 5.199505 
0.381	 57.661576	 22.226595	 6.965198	 5.199530 
0.382	 57.660473	 22.226164	 6.965366	 5.199555 
0.383	 57.659361	 22.225729	 6.965535	 5.199579 
0.384	 57.658240	 22.225291	 6.965706	 5.199605 
0.385	 57.657109	 22.224849	 6.965878	 5.199630 
0.386	 57.655969	 22.224403	 6.966052	 5.199656 
0.387	 57.654818	 22.223953	 6.966227	 5.199681 
0.388	 57.653656	 22.223499	 6.966404	 5.199708 
0.389	 57.652483	 22.223040	 6.966583	 5.199734 
0.390	 57.651298	 22.222577	 6.966763	 5.199760 
0.391	 57.650100	 22.222108	 6.966946	 5.199787 
0.392	 57.648888	 22.221635	 6.967130	 5.199814 
0.393	 57.647664	 22.221156	 6.967317	 5.199842 
0.394	 57.646427	 22.220673	 6.967505	 5.199870 
0.395	 57.645179	 22.220185	 6.967696	 5.199898 
0.396	 57.643920	 22.219693	 6.967888	 5.199926 
0.397	 57.642651	 22.219197	 6.968081	 5.199954 
0.398	 57.641375	 22.218699	 6.968276	 5.199983 
0.399	 57.640092	 22.218197	 6.968471	 5.200012 
0.400	 57.638804	 22.217694	 6.968668	 5.200041 
0.401	 57.637513	 22.217190	 6.968865	 5.200070 
0.402	 57.636219	 22.216684	 6.969063	 5.200099 
0.403	 57.634925	 22.216179	 6.969260	 5.200128 
0.404	 57.633631	 22.215673	 6.969458	 5.200158 
0.405	 57.632339	 22.215169	 6.969655	 5.200187 
0.406	 57.631051	 22.214665	 6.969852	 5.200216 
0.407	 57.629765	 22.214163	 6.970049	 5.200245 
0.408	 57.628484	 22.213663	 6.970244	 5.200274 
0.409	 57.627207	 22.213164	 6.970440	 5.200303 
0.410	 57.625933	 22.212667	 6.970634	 5.200332 
0.411	 57.624664	 22.212171	 6.970828	 5.200360 
0.412	 57.623398	 22.211677	 6.971022	 5.200389 
0.413	 57.622136	 22.211184	 6.971215	 5.200417 
0.414	 57.620877	 22.210693	 6.971408	 5.200446 
0.415	 57.619623	 22.210203	 6.971599	 5.200474 
0.416	 57.618373	 22.209716	 6.971791	 5.200502 
0.417	 57.617128	 22.209230	 6.971981	 5.200531 
0.418	 57.615890	 22.208747	 6.972171	 5.200559 
0.419	 57.614660	 22.208266	 6.972359	 5.200586 
0.420	 57.613438	 22.207790	 6.972546	 5.200614 
0.421	 57.612227	 22.207317	 6.972732	 5.200642 
0.422	 57.611026	 22.206848	 6.972916	 5.200669 
0.423	 57.609839	 22.206385	 6.973098	 5.200696 
0.424	 57.608664	 22.205927	 6.973278	 5.200722 
0.425	 57.607503	 22.205474	 6.973456	 5.200749 
0.426	 57.606357	 22.205026	 6.973631	 5.200775 
0.427	 57.605224	 22.204585	 6.973805	 5.200800 
0.428	 57.604105	 22.204148	 6.973977	 5.200826 
0.429	 57.602999	 22.203717	 6.974146	 5.200851 
0.430	 57.601905	 22.203290	 6.974314	 5.200876 
0.431	 57.600820	 22.202867	 6.974480	 5.200900 
0.432	 57.599745	 22.202447	 6.974645	 5.200925 
0.433	 57.598675	 22.202030	 6.974809	 5.200949 
0.434	 57.597610	 22.201615	 6.974973	 5.200973 
0.435	 57.596548	 22.201201	 6.975135	 5.200997 
0.436	 57.595485	 22.200786	 6.975298	 5.201021 
0.437	 57.594420	 22.200371	 6.975462	 5.201045 
0.438	 57.593351	 22.199954	 6.975625	 5.201069 
0.439	 57.592276	 22.199535	 6.975790	 5.201093 
0.440	 57.591192	 22.199112	 6.975956	 5.201118 
0.441	 57.590097	 22.198685	 6.976124	 5.201142 
0.442	 57.588989	 22.198254	 6.976294	 5.201167 
0.443	 57.587867	 22.197816	 6.976466	 5.201192 
0.444	 57.586728	 22.197372	 6.976640	 5.201218 
0.445	 57.585571	 22.196921	 6.976817	 5.201244 
0.446	 57.584394	 22.196462	 6.976998	 5.201270 
0.447	 57.583195	 22.195995	 6.977181	 5.201297 
0.448	 57.581975	 22.195520	 6.977368	 5.201324 
0.449	 57.580730	 22.195035	 6.977559	 5.201352 
0.450	 57.579462	 22.194540	 6.977753	 5.201381 
0.451	 57.578167	 22.194036	 6.977952	 5.201410 
0.452	 57.576846	 22.193521	 6.978154	 5.201439 
0.453	 57.575496	 22.192995	 6.978361	 5.201469 
0.454	 57.574118	 22.192458	 6.978572	 5.201500 
0.455	 57.572709	 22.191910	 6.978788	 5.201531 
0.456	 57.571269	 22.191349	 6.979009	 5.201564 
0.457	 57.569796	 22.190775	 6.979235	 5.201597 
0.458	 57.568290	 22.190188	 6.979466	 5.201630 
0.459	 57.566749	 22.189588	 6.979702	 5.201665 
0.460	 57.565172	 22.188974	 6.979944	 5.201700 
0.461	 57.563556	 22.188345	 6.980192	 5.201736 
0.462	 57.561900	 22.187700	 6.980446	 5.201773 
0.463	 57.560202	 22.187039	 6.980707	 5.201811 
0.464	 57.558459	 22.186360	 6.980974	 5.201850 
0.465	 57.556668	 22.185663	 6.981249	 5.201890 
0.466	 57.554828	 22.184947	 6.981531	 5.201931 
0.467	 57.552936	 22.184211	 6.981822	 5.201973 
0.468	 57.550988	 22.183453	 6.982121	 5.202016 
0.469	 57.548983	 22.182672	 6.982428	 5.202061 
0.470	 57.546916	 22.181868	 6.982746	 5.202107 
0.471	 57.544784	 22.181039	 6.983073	 5.202154 
0.472	 57.542583	 22.180182	 6.983411	 5.202203 
0.473	 57.540310	 22.179298	 6.983760	 5.202254 
0.474	 57.537959	 22.178384	 6.984121	 5.202306 
0.475	 57.535527	 22.177438	 6.984495	 5.202360 
0.476	 57.533009	 22.176459	 6.984882	 5.202416 
0.477	 57.530402	 22.175445	 6.985283	 5.202474 
0.478	 57.527700	 22.174395	 6.985698	 5.202534 
0.479	 57.524900	 22.173306	 6.986129	 5.202596 
0.480	 57.521996	 22.172177	 6.986575	 5.202661 
0.481	 57.518985	 22.171007	 6.987039	 5.202728 
0.482	 57.515859	 22.169793	 6.987520	 5.202797 
0.483	 57.512615	 22.168532	 6.988019	 5.202869 
0.484	 57.509247	 22.167224	 6.988538	 5.202944 
0.485	 57.505748	 22.165865	 6.989076	 5.203021 
0.486	 57.502112	 22.164453	 6.989637	 5.203102 
0.487	 57.498332	 22.162985	 6.990219	 5.203186 
0.488	 57.494401	 22.161459	 6.990825	 5.203273 
0.489	 57.490311	 22.159871	 6.991456	 5.203364 
0.490	 57.486055	 22.158220	 6.992112	 5.203458 
0.491	 57.481624	 22.156500	 6.992796	 5.203557 
0.492	 57.477009	 22.154710	 6.993509	 5.203659 
0.493	 57.472201	 22.152846	 6.994251	 5.203766 
0.494	 57.467191	 22.150903	 6.995025	 5.203877 
0.495	 57.461967	 22.148878	 6.995833	 5.203993 
0.496	 57.456519	 22.146766	 6.996676	 5.204113 
0.497	 57.450834	 22.144563	 6.997555	 5.204240 
0.498	 57.444901	 22.142265	 6.998474	 5.204371 
0.499	 57.438706	 22.139866	 6.999433	 5.204508 
0.500	 57.432237	 22.137361	 7.000436	 5.204652 
0.501	 57.425481	 22.134746	 7.001484	 5.204802 
0.502	 57.418426	 22.132016	 7.002579	 5.204958 
0.503	 57.411059	 22.129167	 7.003723	 5.205122 
0.504	 57.403368	 22.126193	 7.004918	 5.205292 
0.505	 57.395343	 22.123091	 7.006166	 5.205470 
0.506	 57.386972	 22.119856	 7.007470	 5.205656 
0.507	 57.378247	 22.116486	 7.008829	 5.205850 
0.508	 57.369159	 22.112977	 7.010246	 5.206052 
0.509	 57.359701	 22.109327	 7.011723	 5.206263 
0.510	 57.349865	 22.105532	 7.013259	 5.206482 
0.511	 57.339648	 22.101592	 7.014858	 5.206709 
0.512	 57.329045	 22.097506	 7.016518	 5.206946 
0.513	 57.318055	 22.093272	 7.018241	 5.207191 
0.514	 57.306677	 22.088890	 7.020027	 5.207445 
0.515	 57.294911	 22.084362	 7.021876	 5.207708 
0.516	 57.282760	 22.079688	 7.023788	 5.207979 
0.517	 57.270228	 22.074870	 7.025762	 5.208260 
0.518	 57.257320	 22.069910	 7.027798	 5.208549 
0.519	 57.244043	 22.064812	 7.029896	 5.208847 
0.520	 57.230406	 22.059578	 7.032053	 5.209153 
0.521	 57.216417	 22.054212	 7.034270	 5.209468 
0.522	 57.202089	 22.048720	 7.036543	 5.209790 
0.523	 57.187434	 22.043106	 7.038872	 5.210120 
0.524	 57.172464	 22.037375	 7.041255	 5.210457 
0.525	 57.157195	 22.031534	 7.043689	 5.210802 
0.526	 57.141641	 22.025588	 7.046173	 5.211153 
0.527	 57.125820	 22.019543	 7.048703	 5.211511 
0.528	 57.109748	 22.013407	 7.051278	 5.211875 
0.529	 57.093444	 22.007187	 7.053894	 5.212244 
0.530	 57.076925	 22.000889	 7.056550	 5.212619 
0.531	 57.060210	 21.994522	 7.059241	 5.212998 
0.532	 57.043317	 21.988091	 7.061966	 5.213382 
0.533	 57.026266	 21.981605	 7.064722	 5.213770 
0.534	 57.009074	 21.975070	 7.067505	 5.214161 
0.535	 56.991760	 21.968494	 7.070313	 5.214556 
0.536	 56.974341	 21.961883	 7.073142	 5.214953 
0.537	 56.956834	 21.955243	 7.075992	 5.215353 
0.538	 56.939256	 21.948582	 7.078858	 5.215755 
0.539	 56.921623	 21.941905	 7.081738	 5.216158 
0.540	 56.903951	 21.935218	 7.084630	 5.216562 
0.541	 56.886255	 21.928528	 7.087531	 5.216968 
0.542	 56.868550	 21.921839	 7.090438	 5.217374 
0.543	 56.850851	 21.915158	 7.093350	 5.217780 
0.544	 56.833172	 21.908489	 7.096264	 5.218186 
0.545	 56.815526	 21.901838	 7.099178	 5.218591 
0.546	 56.797925	 21.895209	 7.102089	 5.218996 
0.547	 56.780384	 21.888607	 7.104996	 5.219400 
0.548	 56.762912	 21.882037	 7.107896	 5.219802 
0.549	 56.745523	 21.875503	 7.110788	 5.220203 
0.550	 56.728227	 21.869008	 7.113670	 5.220602 
0.551	 56.711034	 21.862557	 7.116539	 5.220998 
0.552	 56.693956	 21.856154	 7.119394	 5.221393 
0.553	 56.677002	 21.849802	 7.122233	 5.221785 
0.554	 56.660181	 21.843504	 7.125055	 5.222174 
0.555	 56.643502	 21.837265	 7.127858	 5.222560 
0.556	 56.626974	 21.831086	 7.130640	 5.222943 
0.557	 56.610603	 21.824970	 7.133401	 5.223322 
0.558	 56.594399	 21.818920	 7.136138	 5.223698 
0.559	 56.578366	 21.812939	 7.138850	 5.224070 
0.560	 56.562513	 21.807029	 7.141536	 5.224438 
0.561	 56.546842	 21.801191	 7.144196	 5.224802 
0.562	 56.531361	 21.795427	 7.146828	 5.225162 
0.563	 56.516073	 21.789739	 7.149431	 5.225517 
0.564	 56.500980	 21.784128	 7.152004	 5.225869 
0.565	 56.486086	 21.778593	 7.154548	 5.226215 
0.566	 56.471392	 21.773137	 7.157061	 5.226558 
0.567	 56.456899	 21.767758	 7.159544	 5.226895 
0.568	 56.442607	 21.762458	 7.161995	 5.227228 
0.569	 56.428515	 21.757235	 7.164416	 5.227557 
0.570	 56.414623	 21.752089	 7.166806	 5.227881 
0.571	 56.400929	 21.747019	 7.169165	 5.228201 
0.572	 56.387430	 21.742025	 7.171494	 5.228516 
0.573	 56.374123	 21.737104	 7.173792	 5.228827 
0.574	 56.361004	 21.732256	 7.176061	 5.229133 
0.575	 56.348070	 21.727479	 7.178301	 5.229435 
0.576	 56.335317	 21.722770	 7.180513	 5.229733 
0.577	 56.322739	 21.718130	 7.182696	 5.230027 
0.578	 56.310334	 21.713555	 7.184853	 5.230317 
0.579	 56.298095	 21.709044	 7.186983	 5.230603 
0.580	 56.286020	 21.704596	 7.189087	 5.230886 
0.581	 56.274104	 21.700209	 7.191166	 5.231165 
0.582	 56.262344	 21.695881	 7.193220	 5.231440 
0.583	 56.250737	 21.691611	 7.195250	 5.231711 
0.584	 56.239279	 21.687399	 7.197256	 5.231980 
0.585	 56.227968	 21.683243	 7.199239	 5.232244 
0.586	 56.216804	 21.679142	 7.201198	 5.232506 
0.587	 56.205784	 21.675097	 7.203134	 5.232764 
0.588	 56.194910	 21.671106	 7.205046	 5.233019 
0.589	 56.184182	 21.667172	 7.206935	 5.233270 
0.590	 56.173603	 21.663293	 7.208800	 5.233518 
0.591	 56.163174	 21.659472	 7.210640	 5.233763 
0.592	 56.152900	 21.655708	 7.212455	 5.234004 
0.593	 56.142783	 21.652004	 7.214245	 5.234242 
0.594	 56.132829	 21.648361	 7.216007	 5.234476 
0.595	 56.123041	 21.644781	 7.217741	 5.234706 
0.596	 56.113425	 21.641264	 7.219447	 5.234932 
0.597	 56.103985	 21.637814	 7.221124	 5.235154 
0.598	 56.094729	 21.634432	 7.222770	 5.235373 
0.599	 56.085660	 21.631120	 7.224384	 5.235586 
0.600	 56.076785	 21.627879	 7.225965	 5.235796 
0.601	 56.068109	 21.624713	 7.227512	 5.236001 
0.602	 56.059637	 21.621622	 7.229024	 5.236201 
0.603	 56.051374	 21.618609	 7.230500	 5.236396 
0.604	 56.043323	 21.615674	 7.231940	 5.236587 
0.605	 56.035488	 21.612818	 7.233343	 5.236772 
0.606	 56.027871	 21.610043	 7.234707	 5.236953 
0.607	 56.020474	 21.607349	 7.236034	 5.237128 
0.608	 56.013298	 21.604736	 7.237321	 5.237299 
0.609	 56.006340	 21.602204	 7.238571	 5.237464 
0.610	 55.999601	 21.599751	 7.239782	 5.237624 
0.611	 55.993078	 21.597378	 7.240956	 5.237779 
0.612	 55.986767	 21.595083	 7.242092	 5.237929 
0.613	 55.980666	 21.592865	 7.243190	 5.238074 
0.614	 55.974771	 21.590722	 7.244253	 5.238214 
0.615	 55.969076	 21.588652	 7.245280	 5.238350 
0.616	 55.963578	 21.586655	 7.246272	 5.238481 
0.617	 55.958270	 21.584727	 7.247231	 5.238607 
0.618	 55.953147	 21.582866	 7.248156	 5.238730 
0.619	 55.948202	 21.581071	 7.249050	 5.238847 
0.620	 55.943429	 21.579338	 7.249913	 5.238961 
0.621	 55.938820	 21.577665	 7.250747	 5.239071 
0.622	 55.934368	 21.576050	 7.251553	 5.239177 
0.623	 55.930066	 21.574489	 7.252332	 5.239280 
0.624	 55.925906	 21.572980	 7.253086	 5.239379 
0.625	 55.921881	 21.571520	 7.253815	 5.239474 
0.626	 55.917982	 21.570106	 7.254522	 5.239567 
0.627	 55.914203	 21.568736	 7.255207	 5.239657 
0.628	 55.910535	 21.567407	 7.255872	 5.239744 
0.629	 55.906971	 21.566115	 7.256519	 5.239829 
0.630	 55.903504	 21.564858	 7.257148	 5.239912 
0.631	 55.900126	 21.563634	 7.257761	 5.239992 
0.632	 55.896830	 21.562440	 7.258360	 5.240070 
0.633	 55.893609	 21.561274	 7.258945	 5.240146 
0.634	 55.890456	 21.560132	 7.259517	 5.240221 
0.635	 55.887365	 21.559012	 7.260079	 5.240294 
0.636	 55.884329	 21.557913	 7.260630	 5.240366 
0.637	 55.881341	 21.556831	 7.261173	 5.240437 
0.638	 55.878396	 21.555765	 7.261708	 5.240506 
0.639	 55.875488	 21.554712	 7.262237	 5.240575 
0.640	 55.872612	 21.553671	 7.262760	 5.240643 
0.641	 55.869761	 21.552640	 7.263278	 5.240710 
0.642	 55.866933	 21.551616	 7.263792	 5.240776 
0.643	 55.864121	 21.550599	 7.264304	 5.240842 
0.644	 55.861322	 21.549587	 7.264813	 5.240908 
0.645	 55.858532	 21.548577	 7.265320	 5.240974 
0.646	 55.855747	 21.547570	 7.265827	 5.241039 
0.647	 55.852964	 21.546564	 7.266334	 5.241105 
0.648	 55.850180	 21.545557	 7.266840	 5.241170 
0.649	 55.847393	 21.544550	 7.267348	 5.241235 
0.650	 55.844598	 21.543539	 7.267857	 5.241301 
0.651	 55.841794	 21.542526	 7.268367	 5.241366 
0.652	 55.838980	 21.541509	 7.268880	 5.241432 
0.653	 55.836152	 21.540487	 7.269395	 5.241498 
0.654	 55.833310	 21.539460	 7.269913	 5.241565 
0.655	 55.830452	 21.538428	 7.270434	 5.241632 
0.656	 55.827576	 21.537389	 7.270959	 5.241699 
0.657	 55.824682	 21.536343	 7.271486	 5.241767 
0.658	 55.821767	 21.535291	 7.272018	 5.241835 
0.659	 55.818831	 21.534231	 7.272554	 5.241904 
0.660	 55.815873	 21.533163	 7.273094	 5.241973 
0.661	 55.812892	 21.532086	 7.273638	 5.242043 
0.662	 55.809886	 21.531001	 7.274187	 5.242113 
0.663	 55.806856	 21.529908	 7.274741	 5.242184 
0.664	 55.803801	 21.528805	 7.275299	 5.242255 
0.665	 55.800722	 21.527694	 7.275862	 5.242327 
0.666	 55.797618	 21.526574	 7.276430	 5.242400 
0.667	 55.794489	 21.525446	 7.277002	 5.242473 
0.668	 55.791337	 21.524309	 7.277579	 5.242547 
0.669	 55.788160	 21.523163	 7.278161	 5.242621 
0.670	 55.784960	 21.522009	 7.278747	 5.242696 
0.671	 55.781736	 21.520847	 7.279337	 5.242772 
0.672	 55.778491	 21.519677	 7.279932	 5.242848 
0.673	 55.775225	 21.518500	 7.280531	 5.242924 
0.674	 55.771938	 21.517315	 7.281133	 5.243001 
0.675	 55.768632	 21.516124	 7.281740	 5.243079 
0.676	 55.765308	 21.514926	 7.282350	 5.243157 
0.677	 55.761967	 21.513722	 7.282963	 5.243235 
0.678	 55.758609	 21.512513	 7.283580	 5.243314 
0.679	 55.755237	 21.511299	 7.284200	 5.243393 
0.680	 55.751851	 21.510079	 7.284822	 5.243472 
0.681	 55.748452	 21.508856	 7.285447	 5.243552 
0.682	 55.745042	 21.507628	 7.286074	 5.243632 
0.683	 55.741621	 21.506397	 7.286704	 5.243712 
0.684	 55.738192	 21.505163	 7.287335	 5.243793 
0.685	 55.734755	 21.503926	 7.287968	 5.243874 
0.686	 55.731313	 21.502688	 7.288602	 5.243955 
0.687	 55.727866	 21.501448	 7.289237	 5.244036 
0.688	 55.724416	 21.500207	 7.289874	 5.244117 
0.689	 55.720965	 21.498966	 7.290510	 5.244198 
0.690	 55.717515	 21.497725	 7.291147	 5.244279 
0.691	 55.714067	 21.496486	 7.291783	 5.244360 
0.692	 55.710624	 21.495248	 7.292419	 5.244441 
0.693	 55.707186	 21.494012	 7.293054	 5.244522 
0.694	 55.703755	 21.492779	 7.293688	 5.244603 
0.695	 55.700334	 21.491550	 7.294321	 5.244684 
0.696	 55.696925	 21.490325	 7.294951	 5.244764 
0.697	 55.693529	 21.489106	 7.295580	 5.244844 
0.698	 55.690149	 21.487891	 7.296206	 5.244924 
0.699	 55.686786	 21.486684	 7.296828	 5.245003 
0.700	 55.683442	 21.485483	 7.297448	 5.245082 
0.701	 55.680119	 21.484290	 7.298064	 5.245161 
0.702	 55.676819	 21.483106	 7.298676	 5.245239 
0.703	 55.673544	 21.481930	 7.299283	 5.245316 
0.704	 55.670295	 21.480764	 7.299886	 5.245393 
0.705	 55.667074	 21.479608	 7.300484	 5.245469 
0.706	 55.663882	 21.478463	 7.301077	 5.245545 
0.707	 55.660722	 21.477330	 7.301664	 5.245620 
0.708	 55.657593	 21.476208	 7.302245	 5.245694 
0.709	 55.654499	 21.475098	 7.302821	 5.245767 
0.710	 55.651439	 21.474001	 7.303390	 5.245840 
0.711	 55.648416	 21.472917	 7.303952	 5.245911 
0.712	 55.645429	 21.471846	 7.304508	 5.245982 
0.713	 55.642480	 21.470789	 7.305057	 5.246052 
0.714	 55.639570	 21.469746	 7.305599	 5.246121 
0.715	 55.636698	 21.468717	 7.306134	 5.246189 
0.716	 55.633866	 21.467702	 7.306662	 5.246257 
0.717	 55.631074	 21.466702	 7.307182	 5.246323 
0.718	 55.628322	 21.465716	 7.307696	 5.246388 
0.719	 55.625611	 21.464745	 7.308201	 5.246453 
0.720	 55.622939	 21.463788	 7.308700	 5.246516 
0.721	 55.620307	 21.462845	 7.309191	 5.246579 
0.722	 55.617715	 21.461917	 7.309675	 5.246640 
0.723	 55.615161	 21.461003	 7.310152	 5.246701 
0.724	 55.612646	 21.460102	 7.310622	 5.246761 
0.725	 55.610168	 21.459216	 7.311085	 5.246820 
0.726	 55.607727	 21.458342	 7.311541	 5.246878 
0.727	 55.605321	 21.457481	 7.311991	 5.246935 
0.728	 55.602950	 21.456632	 7.312434	 5.246991 
0.729	 55.600612	 21.455795	 7.312871	 5.247047 
0.730	 55.598305	 21.454970	 7.313303	 5.247101 
0.731	 55.596029	 21.454156	 7.313729	 5.247155 
0.732	 55.593781	 21.453352	 7.314149	 5.247209 
0.733	 55.591560	 21.452557	 7.314565	 5.247262 
0.734	 55.589363	 21.451772	 7.314976	 5.247314 
0.735	 55.587189	 21.450994	 7.315383	 5.247365 
0.736	 55.585035	 21.450224	 7.315787	 5.247416 
0.737	 55.582899	 21.449460	 7.316187	 5.247467 
0.738	 55.580779	 21.448702	 7.316584	 5.247517 
0.739	 55.578671	 21.447949	 7.316979	 5.247567 
0.740	 55.576573	 21.447199	 7.317372	 5.247617 
0.741	 55.574483	 21.446452	 7.317763	 5.247666 
0.742	 55.572397	 21.445706	 7.318154	 5.247715 
0.743	 55.570312	 21.444961	 7.318545	 5.247765 
0.744	 55.568225	 21.444216	 7.318936	 5.247814 
0.745	 55.566134	 21.443468	 7.319328	 5.247863 
0.746	 55.564035	 21.442718	 7.319721	 5.247913 
0.747	 55.561925	 21.441965	 7.320117	 5.247962 
0.748	 55.559802	 21.441206	 7.320515	 5.248012 
0.749	 55.557662	 21.440442	 7.320916	 5.248063 
0.750	 55.555503	 21.439671	 7.321321	 5.248113 
0.751	 55.553321	 21.438892	 7.321730	 5.248165 
0.752	 55.551115	 21.438104	 7.322144	 5.248217 
0.753	 55.548881	 21.437306	 7.322563	 5.248269 
0.754	 55.546616	 21.436498	 7.322988	 5.248322 
0.755	 55.544320	 21.435678	 7.323419	 5.248376 
0.756	 55.541989	 21.434846	 7.323856	 5.248431 
0.757	 55.539620	 21.434001	 7.324301	 5.248486 
0.758	 55.537213	 21.433142	 7.324753	 5.248543 
0.759	 55.534765	 21.432268	 7.325213	 5.248600 
0.760	 55.532275	 21.431380	 7.325680	 5.248658 
0.761	 55.529740	 21.430475	 7.326157	 5.248718 
0.762	 55.527160	 21.429555	 7.326642	 5.248778 
0.763	 55.524534	 21.428618	 7.327135	 5.248840 
0.764	 55.521859	 21.427664	 7.327638	 5.248902 
0.765	 55.519135	 21.426693	 7.328151	 5.248966 
0.766	 55.516362	 21.425704	 7.328672	 5.249031 
0.767	 55.513538	 21.424697	 7.329204	 5.249097 
0.768	 55.510663	 21.423673	 7.329745	 5.249165 
0.769	 55.507737	 21.422630	 7.330296	 5.249233 
0.770	 55.504760	 21.421568	 7.330857	 5.249303 
0.771	 55.501731	 21.420489	 7.331428	 5.249374 
0.772	 55.498650	 21.419391	 7.332008	 5.249446 
0.773	 55.495517	 21.418275	 7.332599	 5.249520 
0.774	 55.492334	 21.417141	 7.333200	 5.249594 
0.775	 55.489100	 21.415989	 7.333810	 5.249670 
0.776	 55.485815	 21.414820	 7.334430	 5.249747 
0.777	 55.482482	 21.413633	 7.335059	 5.249826 
0.778	 55.479100	 21.412429	 7.335698	 5.249905 
0.779	 55.475670	 21.411208	 7.336347	 5.249986 
0.780	 55.472193	 21.409970	 7.337004	 5.250067 
0.781	 55.468671	 21.408717	 7.337670	 5.250150 
0.782	 55.465105	 21.407448	 7.338345	 5.250234 
0.783	 55.461495	 21.406164	 7.339028	 5.250319 
0.784	 55.457843	 21.404865	 7.339720	 5.250405 
0.785	 55.454151	 21.403552	 7.340420	 5.250492 
0.786	 55.450420	 21.402225	 7.341127	 5.250580 
0.787	 55.446652	 21.400885	 7.341841	 5.250668 
0.788	 55.442847	 21.399533	 7.342563	 5.250758 
0.789	 55.439009	 21.398169	 7.343292	 5.250848 
0.790	 55.435138	 21.396793	 7.344027	 5.250940 
0.791	 55.431236	 21.395407	 7.344768	 5.251032 
0.792	 55.427305	 21.394010	 7.345515	 5.251124 
0.793	 55.423347	 21.392604	 7.346268	 5.251218 
0.794	 55.419363	 21.391189	 7.347026	 5.251312 
0.795	 55.415356	 21.389766	 7.347789	 5.251407 
0.796	 55.411326	 21.388336	 7.348556	 5.251502 
0.797	 55.407276	 21.386898	 7.349327	 5.251598 
0.798	 55.403208	 21.385454	 7.350103	 5.251694 
0.799	 55.399122	 21.384005	 7.350882	 5.251790 
0.800	 55.395021	 21.382550	 7.351664	 5.251887 
0.801	 55.390906	 21.381090	 7.352450	 5.251985 
0.802	 55.386778	 21.379626	 7.353238	 5.252082 
0.803	 55.382639	 21.378158	 7.354029	 5.252180 
0.804	 55.378490	 21.376687	 7.354822	 5.252279 
0.805	 55.374332	 21.375213	 7.355617	 5.252377 
0.806	 55.370166	 21.373737	 7.356414	 5.252476 
0.807	 55.365993	 21.372258	 7.357212	 5.252575 
0.808	 55.361813	 21.370777	 7.358013	 5.252674 
0.809	 55.357626	 21.369294	 7.358815	 5.252773 
0.810	 55.353435	 21.367809	 7.359618	 5.252872 
0.811	 55.349238	 21.366323	 7.360422	 5.252972 
0.812	 55.345036	 21.364835	 7.361228	 5.253072 
0.813	 55.340829	 21.363346	 7.362036	 5.253171 
0.814	 55.336617	 21.361856	 7.362844	 5.253271 
0.815	 55.332401	 21.360364	 7.363654	 5.253371 
0.816	 55.328179	 21.358870	 7.364466	 5.253471 
0.817	 55.323953	 21.357375	 7.365278	 5.253572 
0.818	 55.319722	 21.355879	 7.366092	 5.253672 
0.819	 55.315485	 21.354380	 7.366907	 5.253773 
0.820	 55.311243	 21.352880	 7.367724	 5.253873 
0.821	 55.306995	 21.351379	 7.368542	 5.253974 
0.822	 55.302740	 21.349875	 7.369362	 5.254075 
0.823	 55.298479	 21.348369	 7.370183	 5.254176 
0.824	 55.294211	 21.346862	 7.371006	 5.254278 
0.825	 55.289936	 21.345351	 7.371831	 5.254379 
0.826	 55.285653	 21.343839	 7.372657	 5.254481 
0.827	 55.281362	 21.342323	 7.373486	 5.254583 
0.828	 55.277062	 21.340805	 7.374317	 5.254685 
0.829	 55.272753	 21.339284	 7.375149	 5.254787 
0.830	 55.268434	 21.337760	 7.375985	 5.254889 
0.831	 55.264106	 21.336233	 7.376822	 5.254992 
0.832	 55.259767	 21.334702	 7.377662	 5.255095 
0.833	 55.255419	 21.333168	 7.378503	 5.255199 
0.834	 55.251059	 21.331630	 7.379348	 5.255302 
0.835	 55.246689	 21.330089	 7.380195	 5.255406 
0.836	 55.242307	 21.328545	 7.381045	 5.255510 
0.837	 55.237915	 21.326996	 7.381897	 5.255614 
0.838	 55.233511	 21.325444	 7.382751	 5.255719 
0.839	 55.229096	 21.323889	 7.383608	 5.255824 
0.840	 55.224671	 21.322330	 7.384468	 5.255929 
0.841	 55.220234	 21.320767	 7.385330	 5.256034 
0.842	 55.215787	 21.319201	 7.386195	 5.256140 
0.843	 55.211330	 21.317631	 7.387062	 5.256246 
0.844	 55.206863	 21.316059	 7.387931	 5.256352 
0.845	 55.202385	 21.314483	 7.388803	 5.256459 
0.846	 55.197898	 21.312904	 7.389677	 5.256565 
0.847	 55.193402	 21.311322	 7.390554	 5.256672 
0.848	 55.188897	 21.309737	 7.391432	 5.256780 
0.849	 55.184383	 21.308149	 7.392313	 5.256887 
0.850	 55.179861	 21.306559	 7.393196	 5.256995 
0.851	 55.175332	 21.304967	 7.394080	 5.257102 
0.852	 55.170795	 21.303372	 7.394966	 5.257210 
0.853	 55.166252	 21.301775	 7.395855	 5.257318 
0.854	 55.161702	 21.300177	 7.396744	 5.257427 
0.855	 55.157147	 21.298576	 7.397636	 5.257535 
0.856	 55.152587	 21.296974	 7.398528	 5.257644 
0.857	 55.148022	 21.295371	 7.399422	 5.257753 
0.858	 55.143454	 21.293767	 7.400318	 5.257861 
0.859	 55.138883	 21.292163	 7.401214	 5.257970 
0.860	 55.134310	 21.290557	 7.402111	 5.258079 
0.861	 55.129735	 21.288952	 7.403009	 5.258188 
0.862	 55.125160	 21.287347	 7.403907	 5.258298 
0.863	 55.120585	 21.285742	 7.404806	 5.258407 
0.864	 55.116011	 21.284138	 7.405705	 5.258516 
0.865	 55.111439	 21.282535	 7.406604	 5.258625 
0.866	 55.106870	 21.280933	 7.407503	 5.258734 
0.867	 55.102304	 21.279332	 7.408402	 5.258843 
0.868	 55.097743	 21.277734	 7.409300	 5.258952 
0.869	 55.093187	 21.276137	 7.410198	 5.259061 
0.870	 55.088636	 21.274543	 7.411095	 5.259169 
0.871	 55.084092	 21.272951	 7.411991	 5.259278 
0.872	 55.079556	 21.271362	 7.412887	 5.259386 
0.873	 55.075027	 21.269777	 7.413781	 5.259494 
0.874	 55.070506	 21.268194	 7.414674	 5.259602 
0.875	 55.065993	 21.266615	 7.415566	 5.259710 
0.876	 55.061490	 21.265039	 7.416456	 5.259818 
0.877	 55.056996	 21.263466	 7.417345	 5.259925 
0.878	 55.052511	 21.261897	 7.418233	 5.260033 
0.879	 55.048035	 21.260332	 7.419119	 5.260140 
0.880	 55.043569	 21.258770	 7.420004	 5.260246 
0.881	 55.039112	 21.257212	 7.420888	 5.260353 
0.882	 55.034664	 21.255657	 7.421770	 5.260459 
0.883	 55.030224	 21.254105	 7.422651	 5.260566 
0.884	 55.025792	 21.252557	 7.423530	 5.260672 
0.885	 55.021368	 21.251011	 7.424409	 5.260777 
0.886	 55.016950	 21.249468	 7.425287	 5.260883 
0.887	 55.012538	 21.247927	 7.426164	 5.260989 
0.888	 55.008132	 21.246388	 7.427040	 5.261094 
0.889	 55.003730	 21.244851	 7.427915	 5.261199 
0.890	 54.999331	 21.243316	 7.428791	 5.261305 
0.891	 54.994935	 21.241782	 7.429666	 5.261410 
0.892	 54.990541	 21.240248	 7.430542	 5.261515 
0.893	 54.986147	 21.238716	 7.431418	 5.261620 
0.894	 54.981752	 21.237183	 7.432294	 5.261725 
0.895	 54.977356	 21.235649	 7.433171	 5.261830 
0.896	 54.972957	 21.234116	 7.434049	 5.261936 
0.897	 54.968555	 21.232581	 7.434928	 5.262041 
0.898	 54.964149	 21.231045	 7.435808	 5.262146 
0.899	 54.959738	 21.229508	 7.436689	 5.262252 
0.900	 54.955321	 21.227969	 7.437573	 5.262357 
0.901	 54.950897	 21.226428	 7.438458	 5.262463 
0.902	 54.946466	 21.224885	 7.439344	 5.262569 
0.903	 54.942028	 21.223339	 7.440233	 5.262675 
0.904	 54.937581	 21.221791	 7.441124	 5.262782 
0.905	 54.933125	 21.220239	 7.442017	 5.262888 
0.906	 54.928659	 21.218685	 7.442912	 5.262995 
0.907	 54.924183	 21.217127	 7.443810	 5.263102 
0.908	 54.919696	 21.215566	 7.444711	 5.263210 
0.909	 54.915197	 21.214001	 7.445614	 5.263317 
0.910	 54.910687	 21.212433	 7.446520	 5.263425 
0.911	 54.906164	 21.210860	 7.447429	 5.263534 
0.912	 54.901628	 21.209283	 7.448341	 5.263642 
0.913	 54.897079	 21.207702	 7.449256	 5.263751 
0.914	 54.892515	 21.206116	 7.450175	 5.263860 
0.915	 54.887937	 21.204525	 7.451097	 5.263970 
0.916	 54.883345	 21.202929	 7.452022	 5.264080 
0.917	 54.878736	 21.201329	 7.452951	 5.264190 
0.918	 54.874112	 21.199723	 7.453884	 5.264301 
0.919	 54.869470	 21.198111	 7.454820	 5.264412 
0.920	 54.864812	 21.196494	 7.455760	 5.264523 
0.921	 54.860136	 21.194871	 7.456705	 5.264635 
0.922	 54.855442	 21.193242	 7.457653	 5.264748 
0.923	 54.850730	 21.191607	 7.458606	 5.264861 
0.924	 54.845999	 21.189966	 7.459563	 5.264974 
0.925	 54.841249	 21.188319	 7.460524	 5.265088 
0.926	 54.836480	 21.186665	 7.461490	 5.265202 
0.927	 54.831691	 21.185005	 7.462460	 5.265317 
0.928	 54.826883	 21.183338	 7.463435	 5.265432 
0.929	 54.822054	 21.181665	 7.464414	 5.265548 
0.930	 54.817207	 21.179985	 7.465397	 5.265664 
0.931	 54.812339	 21.178299	 7.466386	 5.265780 
0.932	 54.807452	 21.176606	 7.467378	 5.265898 
0.933	 54.802545	 21.174907	 7.468375	 5.266015 
0.934	 54.797620	 21.173202	 7.469377	 5.266133 
0.935	 54.792676	 21.171491	 7.470383	 5.266252 
0.936	 54.787714	 21.169774	 7.471393	 5.266371 
0.937	 54.782735	 21.168051	 7.472407	 5.266490 
0.938	 54.777739	 21.166323	 7.473425	 5.266610 
0.939	 54.772727	 21.164589	 7.474447	 5.266731 
0.940	 54.767700	 21.162851	 7.475472	 5.266851 
0.941	 54.762659	 21.161108	 7.476501	 5.266972 
0.942	 54.757604	 21.159361	 7.477534	 5.267094 
0.943	 54.752538	 21.157610	 7.478569	 5.267215 
0.944	 54.747461	 21.155856	 7.479607	 5.267337 
0.945	 54.742375	 21.154099	 7.480648	 5.267460 
0.946	 54.737281	 21.152340	 7.481691	 5.267582 
0.947	 54.732180	 21.150579	 7.482735	 5.267705 
0.948	 54.727074	 21.148816	 7.483782	 5.267827 
0.949	 54.721965	 21.147053	 7.484830	 5.267950 
0.950	 54.716854	 21.145289	 7.485878	 5.268073 
0.951	 54.711742	 21.143526	 7.486928	 5.268196 
0.952	 54.706632	 21.141763	 7.487978	 5.268319 
0.953	 54.701525	 21.140002	 7.489027	 5.268442 
0.954	 54.696423	 21.138243	 7.490077	 5.268565 
0.955	 54.691327	 21.136486	 7.491125	 5.268688 
0.956	 54.686239	 21.134732	 7.492173	 5.268811 
0.957	 54.681160	 21.132982	 7.493219	 5.268933 
0.958	 54.676093	 21.131237	 7.494264	 5.269055 
0.959	 54.671039	 21.129496	 7.495306	 5.269177 
0.960	 54.665999	 21.127760	 7.496347	 5.269299 
0.961	 54.660975	 21.126030	 7.497384	 5.269420 
0.962	 54.655968	 21.124307	 7.498419	 5.269541 
0.963	 54.650980	 21.122590	 7.499450	 5.269662 
0.964	 54.646012	 21.120881	 7.500477	 5.269782 
0.965	 54.641066	 21.119179	 7.501501	 5.269901 
0.966	 54.636143	 21.117486	 7.502521	 5.270020 
0.967	 54.631243	 21.115801	 7.503536	 5.270139 
0.968	 54.626369	 21.114125	 7.504546	 5.270256 
0.969	 54.621521	 21.112459	 7.505552	 5.270374 
0.970	 54.616701	 21.110802	 7.506553	 5.270490 
0.971	 54.611908	 21.109156	 7.507548	 5.270606 
0.972	 54.607145	 21.107519	 7.508537	 5.270722 
0.973	 54.602412	 21.105894	 7.509521	 5.270836 
0.974	 54.597710	 21.104279	 7.510499	 5.270950 
0.975	 54.593040	 21.102675	 7.511471	 5.271063 
0.976	 54.588402	 21.101083	 7.512437	 5.271175 
0.977	 54.583796	 21.099502	 7.513397	 5.271287 
0.978	 54.579224	 21.097933	 7.514350	 5.271398 
0.979	 54.574686	 21.096376	 7.515296	 5.271508 
0.980	 54.570182	 21.094832	 7.516236	 5.271617 
0.981	 54.565713	 21.093299	 7.517169	 5.271725 
0.982	 54.561279	 21.091778	 7.518095	 5.271833 
0.983	 54.556880	 21.090270	 7.519014	 5.271940 
0.984	 54.552515	 21.088774	 7.519926	 5.272045 
0.985	 54.548186	 21.087290	 7.520832	 5.272150 
0.986	 54.543893	 21.085819	 7.521730	 5.272255 
0.987	 54.539634	 21.084360	 7.522622	 5.272358 
0.988	 54.535410	 21.082913	 7.523507	 5.272460 
0.989	 54.531221	 21.081478	 7.524385	 5.272562 
0.990	 54.527067	 21.080056	 7.525256	 5.272663 
0.991	 54.522946	 21.078645	 7.526120	 5.272763 
0.992	 54.518860	 21.077246	 7.526977	 5.272862 
0.993	 54.514806	 21.075859	 7.527828	 5.272961 
0.994	 54.510785	 21.074482	 7.528673	 5.273058 
0.995	 54.506795	 21.073117	 7.529511	 5.273155 
0.996	 54.502836	 21.071763	 7.530344	 5.273251 
0.997	 54.498906	 21.070419	 7.531170	 5.273347 
0.998	 54.495006	 21.069085	 7.531991	 5.273441 
0.999	 54.491133	 21.067761	 7.532806	 5.273535 
1.000	 54.487286	 21.066445	 7.533616	 5.273629 
1.001	 54.483464	 21.065139	 7.534421	 5.273722 
1.002	 54.479666	 21.063841	 7.535221	 5.273814 
1.003	 54.475890	 21.062550	 7.536017	 5.273905 
1.004	 54.472134	 21.061267	 7.536809	 5.273997 
1.005	 54.468398	 21.059991	 7.537597	 5.274087 
1.006	 54.464680	 21.058721	 7.538382	 5.274177 
1.007	 54.460978	 21.057457	 7.539164	 5.274267 
1.008	 54.457291	 21.056198	 7.539942	 5.274357 
1.009	 54.453618	 21.054943	 7.540719	 5.274446 
1.010	 54.449956	 21.053693	 7.541493	 5.274535 
1.011	 54.446306	 21.052447	 7.542264	 5.274623 
1.012	 54.442664	 21.051205	 7.543035	 5.274712 
1.013	 54.439031	 21.049965	 7.543803	 5.274800 
1.014	 54.435404	 21.048728	 7.544571	 5.274888 
1.015	 54.431783	 21.047492	 7.545338	 5.274975 
1.016	 54.428166	 21.046259	 7.546104	 5.275063 
1.017	 54.424551	 21.045026	 7.546870	 5.275151 
1.018	 54.420939	 21.043794	 7.547636	 5.275238 
1.019	 54.417328	 21.042563	 7.548402	 5.275326 
1.020	 54.413716	 21.041332	 7.549168	 5.275413 
1.021	 54.410104	 21.040101	 7.549935	 5.275501 
1.022	 54.406489	 21.038869	 7.550702	 5.275588 
1.023	 54.402871	 21.037636	 7.551471	 5.275676 
1.024	 54.399249	 21.036402	 7.552240	 5.275764 
1.025	 54.395624	 21.035167	 7.553011	 5.275852 
1.026	 54.391993	 21.033931	 7.553783	 5.275940 
1.027	 54.388356	 21.032692	 7.554557	 5.276028 
1.028	 54.384713	 21.031452	 7.555332	 5.276116 
1.029	 54.381063	 21.030210	 7.556109	 5.276205 
1.030	 54.377407	 21.028965	 7.556888	 5.276293 
1.031	 54.373742	 21.027718	 7.557669	 5.276382 
1.032	 54.370070	 21.026468	 7.558451	 5.276471 
1.033	 54.366390	 21.025216	 7.559236	 5.276560 
1.034	 54.362702	 21.023962	 7.560023	 5.276650 
1.035	 54.359006	 21.022704	 7.560812	 5.276739 
1.036	 54.355302	 21.021445	 7.561603	 5.276829 
1.037	 54.351589	 21.020182	 7.562396	 5.276919 
1.038	 54.347869	 21.018917	 7.563190	 5.277009 
1.039	 54.344141	 21.017650	 7.563987	 5.277100 
1.040	 54.340405	 21.016381	 7.564786	 5.277190 
1.041	 54.336662	 21.015109	 7.565587	 5.277281 
1.042	 54.332913	 21.013835	 7.566390	 5.277372 
1.043	 54.329157	 21.012559	 7.567194	 5.277463 
1.044	 54.325395	 21.011281	 7.568000	 5.277554 
1.045	 54.321627	 21.010001	 7.568807	 5.277646 
1.046	 54.317856	 21.008720	 7.569616	 5.277737 
1.047	 54.314080	 21.007438	 7.570426	 5.277829 
1.048	 54.310301	 21.006156	 7.571237	 5.277921 
1.049	 54.306519	 21.004872	 7.572049	 5.278013 
1.050	 54.302736	 21.003588	 7.572861	 5.278105 
1.051	 54.298951	 21.002304	 7.573675	 5.278196 
1.052	 54.295167	 21.001020	 7.574488	 5.278288 
1.053	 54.291384	 20.999737	 7.575302	 5.278380 
1.054	 54.287602	 20.998454	 7.576115	 5.278472 
1.055	 54.283824	 20.997173	 7.576929	 5.278564 
1.056	 54.280049	 20.995893	 7.577742	 5.278656 
1.057	 54.276280	 20.994615	 7.578554	 5.278748 
1.058	 54.272516	 20.993340	 7.579365	 5.278839 
1.059	 54.268760	 20.992067	 7.580175	 5.278931 
1.060	 54.265012	 20.990796	 7.580983	 5.279022 
1.061	 54.261273	 20.989530	 7.581790	 5.279113 
1.062	 54.257544	 20.988267	 7.582596	 5.279204 
1.063	 54.253827	 20.987008	 7.583399	 5.279294 
1.064	 54.250122	 20.985753	 7.584199	 5.279385 
1.065	 54.246432	 20.984503	 7.584997	 5.279475 
1.066	 54.242755	 20.983259	 7.585792	 5.279564 
1.067	 54.239095	 20.982020	 7.586584	 5.279654 
1.068	 54.235451	 20.980786	 7.587373	 5.279742 
1.069	 54.231824	 20.979559	 7.588159	 5.279831 
1.070	 54.228216	 20.978338	 7.588941	 5.279919 
1.071	 54.224628	 20.977124	 7.589718	 5.280007 
1.072	 54.221060	 20.975917	 7.590492	 5.280094 
1.073	 54.217512	 20.974717	 7.591262	 5.280180 
1.074	 54.213986	 20.973525	 7.592027	 5.280266 
1.075	 54.210482	 20.972340	 7.592788	 5.280352 
1.076	 54.207002	 20.971164	 7.593544	 5.280437 
1.077	 54.203544	 20.969995	 7.594295	 5.280522 
1.078	 54.200111	 20.968835	 7.595042	 5.280605 
1.079	 54.196702	 20.967683	 7.595783	 5.280689 
1.080	 54.193317	 20.966539	 7.596520	 5.280772 
1.081	 54.189957	 20.965404	 7.597251	 5.280854 
1.082	 54.186623	 20.964278	 7.597977	 5.280935 
1.083	 54.183314	 20.963160	 7.598698	 5.281016 
1.084	 54.180029	 20.962051	 7.599413	 5.281096 
1.085	 54.176770	 20.960950	 7.600124	 5.281176 
1.086	 54.173536	 20.959858	 7.600829	 5.281255 
1.087	 54.170327	 20.958775	 7.601529	 5.281334 
1.088	 54.167143	 20.957700	 7.602224	 5.281412 
1.089	 54.163983	 20.956634	 7.602914	 5.281489 
1.090	 54.160846	 20.955575	 7.603599	 5.281566 
1.091	 54.157733	 20.954525	 7.604279	 5.281642 
1.092	 54.154643	 20.953482	 7.604954	 5.281718 
1.093	 54.151575	 20.952448	 7.605624	 5.281793 
1.094	 54.148529	 20.951420	 7.606290	 5.281867 
1.095	 54.145503	 20.950400	 7.606952	 5.281941 
1.096	 54.142497	 20.949386	 7.607610	 5.282015 
1.097	 54.139511	 20.948379	 7.608264	 5.282088 
1.098	 54.136543	 20.947379	 7.608913	 5.282161 
1.099	 54.133593	 20.946384	 7.609560	 5.282233 
1.100	 54.130658	 20.945395	 7.610203	 5.282305 
1.101	 54.127740	 20.944412	 7.610842	 5.282376 
1.102	 54.124836	 20.943433	 7.611479	 5.282447 
1.103	 54.121945	 20.942459	 7.612113	 5.282518 
1.104	 54.119067	 20.941490	 7.612744	 5.282588 
1.105	 54.116200	 20.940524	 7.613373	 5.282658 
1.106	 54.113344	 20.939562	 7.614000	 5.282728 
1.107	 54.110496	 20.938603	 7.614625	 5.282798 
1.108	 54.107656	 20.937646	 7.615249	 5.282867 
1.109	 54.104822	 20.936692	 7.615871	 5.282936 
1.110	 54.101995	 20.935740	 7.616492	 5.283005 
1.111	 54.099172	 20.934790	 7.617113	 5.283074 
1.112	 54.096352	 20.933841	 7.617733	 5.283143 
1.113	 54.093534	 20.932893	 7.618352	 5.283212 
1.114	 54.090718	 20.931945	 7.618972	 5.283281 
1.115	 54.087902	 20.930998	 7.619591	 5.283350 
1.116	 54.085086	 20.930050	 7.620211	 5.283418 
1.117	 54.082267	 20.929102	 7.620832	 5.283487 
1.118	 54.079446	 20.928153	 7.621453	 5.283556 
1.119	 54.076622	 20.927203	 7.622075	 5.283625 
1.120	 54.073793	 20.926252	 7.622699	 5.283694 
1.121	 54.070960	 20.925299	 7.623323	 5.283763 
1.122	 54.068120	 20.924345	 7.623949	 5.283832 
1.123	 54.065274	 20.923388	 7.624577	 5.283902 
1.124	 54.062420	 20.922429	 7.625207	 5.283972 
1.125	 54.059558	 20.921467	 7.625838	 5.284041 
1.126	 54.056688	 20.920502	 7.626472	 5.284111 
1.127	 54.053808	 20.919534	 7.627108	 5.284182 
1.128	 54.050918	 20.918563	 7.627746	 5.284252 
1.129	 54.048017	 20.917589	 7.628387	 5.284323 
1.130	 54.045105	 20.916611	 7.629031	 5.284394 
1.131	 54.042180	 20.915628	 7.629678	 5.284465 
1.132	 54.039244	 20.914642	 7.630327	 5.284537 
1.133	 54.036294	 20.913652	 7.630980	 5.284609 
1.134	 54.033331	 20.912657	 7.631636	 5.284681 
1.135	 54.030353	 20.911657	 7.632295	 5.284754 
1.136	 54.027362	 20.910653	 7.632957	 5.284827 
1.137	 54.024356	 20.909644	 7.633623	 5.284900 
1.138	 54.021335	 20.908631	 7.634293	 5.284974 
1.139	 54.018299	 20.907612	 7.634966	 5.285048 
1.140	 54.015248	 20.906588	 7.635642	 5.285122 
1.141	 54.012182	 20.905560	 7.636322	 5.285197 
1.142	 54.009100	 20.904526	 7.637006	 5.285272 
1.143	 54.006002	 20.903487	 7.637694	 5.285348 
1.144	 54.002890	 20.902443	 7.638385	 5.285424 
1.145	 53.999762	 20.901395	 7.639080	 5.285500 
1.146	 53.996620	 20.900341	 7.639778	 5.285577 
1.147	 53.993463	 20.899283	 7.640480	 5.285654 
1.148	 53.990292	 20.898220	 7.641185	 5.285732 
1.149	 53.987107	 20.897153	 7.641894	 5.285809 
1.150	 53.983909	 20.896081	 7.642606	 5.285887 
1.151	 53.980699	 20.895005	 7.643320	 5.285966 
1.152	 53.977476	 20.893926	 7.644038	 5.286045 
1.153	 53.974241	 20.892842	 7.644759	 5.286124 
1.154	 53.970996	 20.891755	 7.645482	 5.286203 
1.155	 53.967740	 20.890665	 7.646208	 5.286283 
1.156	 53.964475	 20.889572	 7.646937	 5.286363 
1.157	 53.961200	 20.888476	 7.647668	 5.286443 
1.158	 53.957918	 20.887377	 7.648400	 5.286523 
1.159	 53.954628	 20.886276	 7.649135	 5.286603 
1.160	 53.951331	 20.885172	 7.649872	 5.286684 
1.161	 53.948028	 20.884067	 7.650610	 5.286765 
1.162	 53.944719	 20.882960	 7.651350	 5.286846 
1.163	 53.941406	 20.881852	 7.652091	 5.286927 
1.164	 53.938089	 20.880742	 7.652833	 5.287008 
1.165	 53.934768	 20.879631	 7.653577	 5.287090 
1.166	 53.931444	 20.878520	 7.654321	 5.287171 
1.167	 53.928119	 20.877408	 7.655066	 5.287253 
1.168	 53.924793	 20.876296	 7.655811	 5.287334 
1.169	 53.921466	 20.875184	 7.656557	 5.287416 
1.170	 53.918139	 20.874072	 7.657304	 5.287497 
1.171	 53.914813	 20.872961	 7.658050	 5.287579 
1.172	 53.911489	 20.871850	 7.658796	 5.287660 
1.173	 53.908168	 20.870741	 7.659542	 5.287742 
1.174	 53.904849	 20.869632	 7.660288	 5.287823 
1.175	 53.901535	 20.868525	 7.661032	 5.287904 
1.176	 53.898224	 20.867419	 7.661777	 5.287986 
1.177	 53.894918	 20.866315	 7.662520	 5.288067 
1.178	 53.891617	 20.865213	 7.663263	 5.288148 
1.179	 53.888322	 20.864113	 7.664005	 5.288229 
1.180	 53.885033	 20.863015	 7.664746	 5.288310 
1.181	 53.881750	 20.861920	 7.665485	 5.288390 
1.182	 53.878473	 20.860826	 7.666224	 5.288471 
1.183	 53.875204	 20.859736	 7.666961	 5.288551 
1.184	 53.871942	 20.858647	 7.667696	 5.288631 
1.185	 53.868687	 20.857561	 7.668431	 5.288711 
1.186	 53.865440	 20.856478	 7.669163	 5.288791 
1.187	 53.862200	 20.855398	 7.669895	 5.288871 
1.188	 53.858969	 20.854321	 7.670625	 5.288950 
1.189	 53.855747	 20.853246	 7.671353	 5.289029 
1.190	 53.852533	 20.852175	 7.672079	 5.289108 
1.191	 53.849328	 20.851107	 7.672804	 5.289187 
1.192	 53.846132	 20.850042	 7.673527	 5.289266 
1.193	 53.842946	 20.848980	 7.674248	 5.289344 
1.194	 53.839769	 20.847922	 7.674967	 5.289422 
1.195	 53.836603	 20.846867	 7.675684	 5.289500 
1.196	 53.833446	 20.845815	 7.676399	 5.289578 
1.197	 53.830300	 20.844767	 7.677112	 5.289655 
1.198	 53.827164	 20.843723	 7.677823	 5.289732 
1.199	 53.824039	 20.842682	 7.678532	 5.289809 
1.200	 53.820925	 20.841645	 7.679238	 5.289886 
1.201	 53.817821	 20.840612	 7.679943	 5.289962 
1.202	 53.814729	 20.839583	 7.680645	 5.290038 
1.203	 53.811647	 20.838557	 7.681345	 5.290114 
1.204	 53.808576	 20.837536	 7.682042	 5.290190 
1.205	 53.805517	 20.836517	 7.682738	 5.290265 
1.206	 53.802468	 20.835503	 7.683431	 5.290340 
1.207	 53.799430	 20.834493	 7.684122	 5.290415 
1.208	 53.796403	 20.833486	 7.684810	 5.290490 
1.209	 53.793386	 20.832482	 7.685497	 5.290564 
1.210	 53.790379	 20.831482	 7.686182	 5.290638 
1.211	 53.787383	 20.830486	 7.686864	 5.290712 
1.212	 53.784397	 20.829493	 7.687544	 5.290785 
1.213	 53.781420	 20.828504	 7.688223	 5.290859 
1.214	 53.778453	 20.827517	 7.688899	 5.290932 
1.215	 53.775495	 20.826534	 7.689574	 5.291005 
1.216	 53.772546	 20.825554	 7.690246	 5.291077 
1.217	 53.769605	 20.824577	 7.690918	 5.291150 
1.218	 53.766674	 20.823604	 7.691587	 5.291222 
1.219	 53.763751	 20.822632	 7.692254	 5.291294 
1.220	 53.760836	 20.821664	 7.692920	 5.291366 
1.221	 53.757929	 20.820699	 7.693584	 5.291437 
1.222	 53.755030	 20.819736	 7.694247	 5.291509 
1.223	 53.752139	 20.818776	 7.694908	 5.291580 
1.224	 53.749255	 20.817819	 7.695568	 5.291651 
1.225	 53.746378	 20.816864	 7.696226	 5.291722 
1.226	 53.743508	 20.815911	 7.696883	 5.291793 
1.227	 53.740645	 20.814961	 7.697538	 5.291863 
1.228	 53.737789	 20.814013	 7.698192	 5.291934 
1.229	 53.734940	 20.813068	 7.698845	 5.292004 
1.230	 53.732097	 20.812124	 7.699497	 5.292074 
1.231	 53.729261	 20.811183	 7.700147	 5.292144 
1.232	 53.726430	 20.810245	 7.700796	 5.292214 
1.233	 53.723606	 20.809308	 7.701444	 5.292283 
1.234	 53.720788	 20.808373	 7.702090	 5.292353 
1.235	 53.717975	 20.807441	 7.702736	 5.292422 
1.236	 53.715168	 20.806510	 7.703381	 5.292491 
1.237	 53.712366	 20.805581	 7.704024	 5.292560 
1.238	 53.709568	 20.804653	 7.704667	 5.292629 
1.239	 53.706775	 20.803728	 7.705309	 5.292698 
1.240	 53.703985	 20.802803	 7.705950	 5.292767 
1.241	 53.701198	 20.801879	 7.706591	 5.292836 
1.242	 53.698413	 20.800957	 7.707232	 5.292904 
1.243	 53.695631	 20.800035	 7.707872	 5.292973 
1.244	 53.692850	 20.799114	 7.708512	 5.293042 
1.245	 53.690069	 20.798192	 7.709153	 5.293110 
1.246	 53.687287	 20.797271	 7.709793	 5.293179 
1.247	 53.684505	 20.796350	 7.710434	 5.293247 
1.248	 53.681721	 20.795428	 7.711076	 5.293316 
1.249	 53.678935	 20.794506	 7.711718	 5.293384 
1.250	 53.676145	 20.793582	 7.712361	 5.293453 
1.251	 53.673352	 20.792657	 7.713006	 5.293522 
1.252	 53.670553	 20.791731	 7.713651	 5.293591 
1.253	 53.667749	 20.790803	 7.714299	 5.293660 
1.254	 53.664938	 20.789873	 7.714948	 5.293729 
1.255	 53.662121	 20.788941	 7.715598	 5.293799 
1.256	 53.659295	 20.788006	 7.716251	 5.293868 
1.257	 53.656461	 20.787068	 7.716906	 5.293938 
1.258	 53.653618	 20.786128	 7.717563	 5.294008 
1.259	 53.650765	 20.785184	 7.718223	 5.294078 
1.260	 53.647901	 20.784237	 7.718885	 5.294149 
1.261	 53.645026	 20.783287	 7.719550	 5.294220 
1.262	 53.642140	 20.782333	 7.720218	 5.294291 
1.263	 53.639241	 20.781374	 7.720890	 5.294362 
1.264	 53.636330	 20.780412	 7.721564	 5.294434 
1.265	 53.633405	 20.779445	 7.722241	 5.294506 
1.266	 53.630467	 20.778474	 7.722922	 5.294578 
1.267	 53.627514	 20.777499	 7.723607	 5.294651 
1.268	 53.624546	 20.776518	 7.724295	 5.294724 
1.269	 53.621564	 20.775533	 7.724987	 5.294797 
1.270	 53.618565	 20.774543	 7.725683	 5.294871 
1.271	 53.615551	 20.773547	 7.726383	 5.294945 
1.272	 53.612521	 20.772546	 7.727086	 5.295020 
1.273	 53.609474	 20.771540	 7.727794	 5.295095 
1.274	 53.606411	 20.770529	 7.728506	 5.295171 
1.275	 53.603331	 20.769512	 7.729222	 5.295246 
1.276	 53.600234	 20.768490	 7.729942	 5.295323 
1.277	 53.597120	 20.767462	 7.730666	 5.295399 
1.278	 53.593989	 20.766429	 7.731395	 5.295476 
1.279	 53.590840	 20.765390	 7.732128	 5.295554 
1.280	 53.587675	 20.764346	 7.732865	 5.295632 
1.281	 53.584493	 20.763296	 7.733607	 5.295710 
1.282	 53.581294	 20.762241	 7.734352	 5.295789 
1.283	 53.578078	 20.761180	 7.735102	 5.295869 
1.284	 53.574845	 20.760114	 7.735856	 5.295948 
1.285	 53.571596	 20.759043	 7.736614	 5.296028 
1.286	 53.568330	 20.757967	 7.737376	 5.296109 
1.287	 53.565048	 20.756885	 7.738143	 5.296190 
1.288	 53.561750	 20.755798	 7.738913	 5.296271 
1.289	 53.558435	 20.754705	 7.739688	 5.296353 
1.290	 53.555105	 20.753608	 7.740466	 5.296435 
1.291	 53.551759	 20.752506	 7.741249	 5.296518 
1.292	 53.548398	 20.751399	 7.742035	 5.296600 
1.293	 53.545022	 20.750287	 7.742825	 5.296684 
1.294	 53.541630	 20.749170	 7.743619	 5.296767 
1.295	 53.538225	 20.748048	 7.744417	 5.296851 
1.296	 53.534805	 20.746922	 7.745218	 5.296936 
1.297	 53.531371	 20.745792	 7.746023	 5.297021 
1.298	 53.527925	 20.744658	 7.746832	 5.297106 
1.299	 53.524466	 20.743519	 7.747643	 5.297191 
1.300	 53.520994	 20.742377	 7.748458	 5.297277 
1.301	 53.517512	 20.741231	 7.749276	 5.297363 
1.302	 53.514018	 20.740082	 7.750097	 5.297449 
1.303	 53.510515	 20.738930	 7.750920	 5.297536 
1.304	 53.507002	 20.737774	 7.751746	 5.297623 
1.305	 53.503480	 20.736616	 7.752574	 5.297710 
1.306	 53.499950	 20.735455	 7.753405	 5.297797 
1.307	 53.496412	 20.734292	 7.754238	 5.297885 
1.308	 53.492868	 20.733127	 7.755073	 5.297972 
1.309	 53.489318	 20.731961	 7.755909	 5.298060 
1.310	 53.485762	 20.730792	 7.756747	 5.298148 
1.311	 53.482202	 20.729622	 7.757587	 5.298236 
1.312	 53.478638	 20.728452	 7.758428	 5.298324 
1.313	 53.475070	 20.727280	 7.759270	 5.298413 
1.314	 53.471500	 20.726107	 7.760113	 5.298501 
1.315	 53.467928	 20.724934	 7.760957	 5.298590 
1.316	 53.464354	 20.723761	 7.761801	 5.298678 
1.317	 53.460780	 20.722588	 7.762646	 5.298767 
1.318	 53.457206	 20.721414	 7.763492	 5.298855 
1.319	 53.453632	 20.720241	 7.764338	 5.298944 
1.320	 53.450059	 20.719069	 7.765183	 5.299032 
1.321	 53.446488	 20.717897	 7.766029	 5.299121 
1.322	 53.442918	 20.716726	 7.766875	 5.299209 
1.323	 53.439352	 20.715556	 7.767720	 5.299298 
1.324	 53.435788	 20.714387	 7.768566	 5.299386 
1.325	 53.432227	 20.713220	 7.769410	 5.299475 
1.326	 53.428670	 20.712053	 7.770255	 5.299563 
1.327	 53.425117	 20.710889	 7.771098	 5.299651 
1.328	 53.421569	 20.709726	 7.771941	 5.299739 
1.329	 53.418026	 20.708564	 7.772783	 5.299827 
1.330	 53.414487	 20.707405	 7.773624	 5.299915 
1.331	 53.410955	 20.706247	 7.774465	 5.300002 
1.332	 53.407428	 20.705092	 7.775304	 5.300090 
1.333	 53.403908	 20.703939	 7.776142	 5.300177 
1.334	 53.400394	 20.702788	 7.776979	 5.300265 
1.335	 53.396888	 20.701640	 7.777814	 5.300352 
1.336	 53.393389	 20.700494	 7.778648	 5.300439 
1.337	 53.389897	 20.699351	 7.779481	 5.300525 
1.338	 53.386414	 20.698211	 7.780311	 5.300612 
1.339	 53.382940	 20.697074	 7.781140	 5.300698 
1.340	 53.379474	 20.695940	 7.781968	 5.300785 
1.341	 53.376018	 20.694809	 7.782793	 5.300870 
1.342	 53.372571	 20.693681	 7.783617	 5.300956 
1.343	 53.369135	 20.692557	 7.784438	 5.301042 
1.344	 53.365709	 20.691436	 7.785258	 5.301127 
1.345	 53.362293	 20.690319	 7.786075	 5.301212 
1.346	 53.358888	 20.689206	 7.786890	 5.301296 
1.347	 53.355494	 20.688096	 7.787702	 5.301381 
1.348	 53.352112	 20.686990	 7.788513	 5.301465 
1.349	 53.348740	 20.685888	 7.789321	 5.301549 
1.350	 53.345380	 20.684790	 7.790126	 5.301633 
1.351	 53.342031	 20.683696	 7.790929	 5.301716 
1.352	 53.338694	 20.682606	 7.791730	 5.301799 
1.353	 53.335368	 20.681519	 7.792528	 5.301882 
1.354	 53.332053	 20.680436	 7.793324	 5.301964 
1.355	 53.328750	 20.679357	 7.794117	 5.302047 
1.356	 53.325457	 20.678282	 7.794908	 5.302129 
1.357	 53.322175	 20.677210	 7.795697	 5.302210 
1.358	 53.318904	 20.676142	 7.796484	 5.302292 
1.359	 53.315643	 20.675078	 7.797268	 5.302373 
1.360	 53.312392	 20.674017	 7.798051	 5.302454 
1.361	 53.309151	 20.672959	 7.798831	 5.302535 
1.362	 53.305919	 20.671904	 7.799609	 5.302615 
1.363	 53.302697	 20.670853	 7.800386	 5.302695 
1.364	 53.299482	 20.669804	 7.801160	 5.302775 
1.365	 53.296277	 20.668759	 7.801933	 5.302855 
1.366	 53.293078	 20.667716	 7.802705	 5.302935 
1.367	 53.289888	 20.666675	 7.803474	 5.303014 
1.368	 53.286704	 20.665637	 7.804243	 5.303094 
1.369	 53.283528	 20.664601	 7.805010	 5.303173 
1.370	 53.280357	 20.663568	 7.805776	 5.303252 
1.371	 53.277193	 20.662536	 7.806540	 5.303331 
1.372	 53.274034	 20.661507	 7.807304	 5.303409 
1.373	 53.270881	 20.660479	 7.808066	 5.303488 
1.374	 53.267732	 20.659453	 7.808828	 5.303566 
1.375	 53.264588	 20.658429	 7.809589	 5.303645 
1.376	 53.261449	 20.657406	 7.810348	 5.303723 
1.377	 53.258313	 20.656385	 7.811108	 5.303801 
1.378	 53.255181	 20.655365	 7.811867	 5.303879 
1.379	 53.252052	 20.654346	 7.812625	 5.303957 
1.380	 53.248926	 20.653328	 7.813383	 5.304035 
1.381	 53.245803	 20.652311	 7.814140	 5.304113 
1.382	 53.242682	 20.651295	 7.814897	 5.304190 
1.383	 53.239563	 20.650280	 7.815654	 5.304268 
1.384	 53.236445	 20.649266	 7.816411	 5.304346 
1.385	 53.233329	 20.648251	 7.817168	 5.304423 
1.386	 53.230214	 20.647238	 7.817924	 5.304501 
1.387	 53.227100	 20.646225	 7.818681	 5.304579 
1.388	 53.223986	 20.645212	 7.819438	 5.304656 
1.389	 53.220872	 20.644199	 7.820196	 5.304734 
1.390	 53.217758	 20.643186	 7.820953	 5.304811 
1.391	 53.214644	 20.642174	 7.821711	 5.304889 
1.392	 53.211530	 20.641161	 7.822469	 5.304967 
1.393	 53.208415	 20.640148	 7.823228	 5.305044 
1.394	 53.205298	 20.639136	 7.823987	 5.305122 
1.395	 53.202181	 20.638122	 7.824747	 5.305200 
1.396	 53.199063	 20.637109	 7.825507	 5.305277 
1.397	 53.195943	 20.636095	 7.826268	 5.305355 
1.398	 53.192822	 20.635081	 7.827030	 5.305433 
1.399	 53.189700	 20.634067	 7.827792	 5.305511 
1.400	 53.186575	 20.633052	 7.828555	 5.305589 
1.401	 53.183450	 20.632037	 7.829319	 5.305666 
1.402	 53.180322	 20.631021	 7.830083	 5.305744 
1.403	 53.177193	 20.630005	 7.830848	 5.305822 
1.404	 53.174062	 20.628989	 7.831613	 5.305901 
1.405	 53.170929	 20.627972	 7.832380	 5.305979 
1.406	 53.167795	 20.626954	 7.833147	 5.306057 
1.407	 53.164659	 20.625937	 7.833915	 5.306135 
1.408	 53.161521	 20.624918	 7.834683	 5.306213 
1.409	 53.158382	 20.623900	 7.835452	 5.306292 
1.410	 53.155242	 20.622881	 7.836222	 5.306370 
1.411	 53.152100	 20.621862	 7.836992	 5.306448 
1.412	 53.148957	 20.620842	 7.837763	 5.306527 
1.413	 53.145812	 20.619823	 7.838535	 5.306605 
1.414	 53.142666	 20.618802	 7.839307	 5.306684 
1.415	 53.139520	 20.617782	 7.840080	 5.306762 
1.416	 53.136372	 20.616762	 7.840853	 5.306841 
1.417	 53.133224	 20.615741	 7.841626	 5.306920 
1.418	 53.130075	 20.614721	 7.842401	 5.306998 
1.419	 53.126925	 20.613700	 7.843175	 5.307077 
1.420	 53.123775	 20.612679	 7.843950	 5.307156 
1.421	 53.120625	 20.611658	 7.844725	 5.307234 
1.422	 53.117474	 20.610638	 7.845501	 5.307313 
1.423	 53.114323	 20.609617	 7.846277	 5.307392 
1.424	 53.111171	 20.608596	 7.847054	 5.307470 
1.425	 53.108020	 20.607576	 7.847831	 5.307549 
1.426	 53.104869	 20.606556	 7.848608	 5.307628 
1.427	 53.101718	 20.605536	 7.849385	 5.307707 
1.428	 53.098568	 20.604516	 7.850162	 5.307785 
1.429	 53.095419	 20.603496	 7.850940	 5.307864 
1.430	 53.092270	 20.602477	 7.851717	 5.307943 
1.431	 53.089122	 20.601459	 7.852495	 5.308021 
1.432	 53.085976	 20.600441	 7.853272	 5.308100 
1.433	 53.082831	 20.599423	 7.854050	 5.308179 
1.434	 53.079688	 20.598406	 7.854827	 5.308257 
1.435	 53.076547	 20.597390	 7.855604	 5.308336 
1.436	 53.073408	 20.596375	 7.856381	 5.308414 
1.437	 53.070272	 20.595361	 7.857158	 5.308493 
1.438	 53.067139	 20.594348	 7.857934	 5.308571 
1.439	 53.064009	 20.593336	 7.858710	 5.308650 
1.440	 53.060883	 20.592326	 7.859484	 5.308728 
1.441	 53.057761	 20.591317	 7.860259	 5.308806 
1.442	 53.054644	 20.590309	 7.861032	 5.308884 
1.443	 53.051531	 20.589303	 7.861805	 5.308962 
1.444	 53.048423	 20.588299	 7.862576	 5.309040 
1.445	 53.045320	 20.587297	 7.863347	 5.309117 
1.446	 53.042223	 20.586296	 7.864116	 5.309195 
1.447	 53.039131	 20.585298	 7.864885	 5.309272 
1.448	 53.036046	 20.584301	 7.865652	 5.309350 
1.449	 53.032966	 20.583307	 7.866418	 5.309427 
1.450	 53.029894	 20.582315	 7.867182	 5.309504 
1.451	 53.026827	 20.581325	 7.867946	 5.309581 
1.452	 53.023768	 20.580337	 7.868708	 5.309657 
1.453	 53.020715	 20.579352	 7.869468	 5.309734 
1.454	 53.017669	 20.578369	 7.870227	 5.309810 
1.455	 53.014630	 20.577389	 7.870985	 5.309886 
1.456	 53.011599	 20.576410	 7.871741	 5.309962 
1.457	 53.008574	 20.575435	 7.872495	 5.310038 
1.458	 53.005557	 20.574461	 7.873248	 5.310114 
1.459	 53.002547	 20.573491	 7.874000	 5.310189 
1.460	 52.999544	 20.572522	 7.874750	 5.310265 
1.461	 52.996549	 20.571557	 7.875498	 5.310340 
1.462	 52.993562	 20.570593	 7.876245	 5.310415 
1.463	 52.990582	 20.569633	 7.876990	 5.310489 
1.464	 52.987609	 20.568674	 7.877733	 5.310564 
1.465	 52.984644	 20.567719	 7.878475	 5.310638 
1.466	 52.981686	 20.566765	 7.879215	 5.310713 
1.467	 52.978735	 20.565815	 7.879954	 5.310787 
1.468	 52.975792	 20.564866	 7.880691	 5.310861 
1.469	 52.972855	 20.563920	 7.881427	 5.310934 
1.470	 52.969926	 20.562977	 7.882161	 5.311008 
1.471	 52.967003	 20.562035	 7.882894	 5.311081 
1.472	 52.964087	 20.561096	 7.883625	 5.311154 
1.473	 52.961177	 20.560159	 7.884355	 5.311227 
1.474	 52.958274	 20.559224	 7.885084	 5.311300 
1.475	 52.955377	 20.558291	 7.885811	 5.311373 
1.476	 52.952485	 20.557361	 7.886538	 5.311445 
1.477	 52.949600	 20.556432	 7.887263	 5.311518 
1.478	 52.946720	 20.555505	 7.887986	 5.311590 
1.479	 52.943845	 20.554580	 7.888709	 5.311662 
1.480	 52.940976	 20.553657	 7.889431	 5.311734 
1.481	 52.938112	 20.552735	 7.890151	 5.311806 
1.482	 52.935252	 20.551815	 7.890871	 5.311878 
1.483	 52.932397	 20.550897	 7.891590	 5.311950 
1.484	 52.929547	 20.549980	 7.892308	 5.312021 
1.485	 52.926701	 20.549065	 7.893025	 5.312093 
1.486	 52.923859	 20.548151	 7.893741	 5.312164 
1.487	 52.921020	 20.547238	 7.894456	 5.312235 
1.488	 52.918185	 20.546327	 7.895171	 5.312307 
1.489	 52.915353	 20.545416	 7.895886	 5.312378 
1.490	 52.912523	 20.544507	 7.896600	 5.312449 
1.491	 52.909696	 20.543598	 7.897313	 5.312520 
1.492	 52.906871	 20.542690	 7.898027	 5.312591 
1.493	 52.904047	 20.541783	 7.898740	 5.312662 
1.494	 52.901225	 20.540876	 7.899453	 5.312733 
1.495	 52.898403	 20.539970	 7.900166	 5.312803 
1.496	 52.895581	 20.539064	 7.900880	 5.312874 
1.497	 52.892760	 20.538157	 7.901594	 5.312945 
1.498	 52.889938	 20.537251	 7.902307	 5.313016 
1.499	 52.887115	 20.536345	 7.903022	 5.313087 
1.500	 52.884291	 20.535438	 7.903737	 5.313158 
1.501	 52.881466	 20.534531	 7.904452	 5.313229 
1.502	 52.878638	 20.533623	 7.905169	 5.313300 
1.503	 52.875807	 20.532715	 7.905886	 5.313371 
1.504	 52.872974	 20.531805	 7.906605	 5.313442 
1.505	 52.870138	 20.530895	 7.907324	 5.313513 
1.506	 52.867298	 20.529984	 7.908044	 5.313584 
1.507	 52.864454	 20.529072	 7.908766	 5.313656 
1.508	 52.861606	 20.528158	 7.909489	 5.313727 
1.509	 52.858754	 20.527243	 7.910213	 5.313799 
1.510	 52.855896	 20.526327	 7.910939	 5.313871 
1.511	 52.853034	 20.525409	 7.911666	 5.313943 
1.512	 52.850166	 20.524489	 7.912395	 5.314015 
1.513	 52.847293	 20.523568	 7.913126	 5.314087 
1.514	 52.844415	 20.522645	 7.913858	 5.314159 
1.515	 52.841531	 20.521721	 7.914592	 5.314232 
1.516	 52.838640	 20.520794	 7.915328	 5.314304 
1.517	 52.835744	 20.519866	 7.916065	 5.314377 
1.518	 52.832842	 20.518936	 7.916804	 5.314450 
1.519	 52.829934	 20.518004	 7.917545	 5.314523 
1.520	 52.827020	 20.517071	 7.918288	 5.314596 
1.521	 52.824100	 20.516135	 7.919033	 5.314669 
1.522	 52.821173	 20.515198	 7.919779	 5.314743 
1.523	 52.818241	 20.514259	 7.920528	 5.314817 
1.524	 52.815303	 20.513318	 7.921278	 5.314890 
1.525	 52.812359	 20.512375	 7.922029	 5.314964 
1.526	 52.809409	 20.511431	 7.922783	 5.315039 
1.527	 52.806452	 20.510484	 7.923538	 5.315113 
1.528	 52.803490	 20.509536	 7.924296	 5.315187 
1.529	 52.800521	 20.508586	 7.925055	 5.315262 
1.530	 52.797547	 20.507634	 7.925816	 5.315337 
1.531	 52.794565	 20.506680	 7.926579	 5.315412 
1.532	 52.791578	 20.505724	 7.927343	 5.315487 
1.533	 52.788584	 20.504767	 7.928110	 5.315562 
1.534	 52.785583	 20.503807	 7.928879	 5.315638 
1.535	 52.782576	 20.502845	 7.929650	 5.315713 
1.536	 52.779563	 20.501881	 7.930422	 5.315789 
1.537	 52.776543	 20.500916	 7.931197	 5.315865 
1.538	 52.773518	 20.499948	 7.931973	 5.315941 
1.539	 52.770486	 20.498979	 7.932751	 5.316017 
1.540	 52.767449	 20.498009	 7.933531	 5.316094 
1.541	 52.764407	 20.497036	 7.934312	 5.316170 
1.542	 52.761360	 20.496063	 7.935095	 5.316247 
1.543	 52.758309	 20.495087	 7.935879	 5.316324 
1.544	 52.755253	 20.494111	 7.936665	 5.316401 
1.545	 52.752194	 20.493134	 7.937452	 5.316478 
1.546	 52.749133	 20.492156	 7.938240	 5.316555 
1.547	 52.746069	 20.491177	 7.939028	 5.316632 
1.548	 52.743003	 20.490198	 7.939818	 5.316709 
1.549	 52.739936	 20.489219	 7.940608	 5.316787 
1.550	 52.736869	 20.488240	 7.941399	 5.316864 
1.551	 52.733802	 20.487261	 7.942189	 5.316941 
1.552	 52.730736	 20.486282	 7.942980	 5.317019 
1.553	 52.727672	 20.485304	 7.943771	 5.317096 
1.554	 52.724609	 20.484327	 7.944562	 5.317173 
1.555	 52.721550	 20.483351	 7.945352	 5.317250 
1.556	 52.718494	 20.482375	 7.946141	 5.317327 
1.557	 52.715442	 20.481402	 7.946930	 5.317404 
1.558	 52.712394	 20.480430	 7.947718	 5.317481 
1.559	 52.709351	 20.479459	 7.948505	 5.317558 
1.560	 52.706314	 20.478490	 7.949291	 5.317635 
1.561	 52.703282	 20.477524	 7.950075	 5.317711 
1.562	 52.700257	 20.476559	 7.950859	 5.317788 
1.563	 52.697239	 20.475597	 7.951640	 5.317864 
1.564	 52.694228	 20.474637	 7.952421	 5.317940 
1.565	 52.691225	 20.473680	 7.953199	 5.318016 
1.566	 52.688230	 20.472726	 7.953976	 5.318091 
1.567	 52.685243	 20.471774	 7.954751	 5.318167 
1.568	 52.682265	 20.470825	 7.955524	 5.318242 
1.569	 52.679297	 20.469879	 7.956294	 5.318317 
1.570	 52.676338	 20.468937	 7.957063	 5.318392 
1.571	 52.673389	 20.467998	 7.957829	 5.318467 
1.572	 52.670450	 20.467062	 7.958593	 5.318541 
1.573	 52.667523	 20.466130	 7.959354	 5.318615 
1.574	 52.664606	 20.465201	 7.960112	 5.318689 
1.575	 52.661701	 20.464276	 7.960868	 5.318762 
1.576	 52.658807	 20.463355	 7.961621	 5.318835 
1.577	 52.655925	 20.462438	 7.962372	 5.318908 
1.578	 52.653056	 20.461524	 7.963119	 5.318981 
1.579	 52.650199	 20.460615	 7.963864	 5.319053 
1.580	 52.647354	 20.459710	 7.964605	 5.319125 
1.581	 52.644523	 20.458809	 7.965343	 5.319197 
1.582	 52.641704	 20.457912	 7.966079	 5.319268 
1.583	 52.638899	 20.457020	 7.966811	 5.319339 
1.584	 52.636106	 20.456132	 7.967540	 5.319410 
1.585	 52.633328	 20.455248	 7.968265	 5.319480 
1.586	 52.630562	 20.454369	 7.968988	 5.319551 
1.587	 52.627810	 20.453494	 7.969707	 5.319620 
1.588	 52.625072	 20.452623	 7.970422	 5.319690 
1.589	 52.622347	 20.451757	 7.971135	 5.319759 
1.590	 52.619635	 20.450895	 7.971844	 5.319827 
1.591	 52.616936	 20.450037	 7.972550	 5.319896 
1.592	 52.614251	 20.449184	 7.973253	 5.319964 
1.593	 52.611578	 20.448335	 7.973953	 5.320032 
1.594	 52.608918	 20.447490	 7.974649	 5.320099 
1.595	 52.606271	 20.446648	 7.975343	 5.320166 
1.596	 52.603636	 20.445811	 7.976033	 5.320233 
1.597	 52.601012	 20.444978	 7.976721	 5.320299 
1.598	 52.598400	 20.444148	 7.977406	 5.320365 
1.599	 52.595799	 20.443322	 7.978088	 5.320431 
1.600	 52.593209	 20.442500	 7.978768	 5.320497 
1.601	 52.590629	 20.441681	 7.979445	 5.320562 
1.602	 52.588060	 20.440865	 7.980120	 5.320628 
1.603	 52.585499	 20.440052	 7.980792	 5.320692 
1.604	 52.582948	 20.439242	 7.981463	 5.320757 
1.605	 52.580406	 20.438436	 7.982131	 5.320821 
1.606	 52.577872	 20.437631	 7.982797	 5.320886 
1.607	 52.575346	 20.436830	 7.983461	 5.320950 
1.608	 52.572827	 20.436031	 7.984123	 5.321014 
1.609	 52.570315	 20.435234	 7.984784	 5.321077 
1.610	 52.567810	 20.434439	 7.985444	 5.321141 
1.611	 52.565311	 20.433646	 7.986101	 5.321204 
1.612	 52.562819	 20.432856	 7.986758	 5.321267 
1.613	 52.560331	 20.432067	 7.987413	 5.321330 
1.614	 52.557849	 20.431280	 7.988067	 5.321393 
1.615	 52.555372	 20.430494	 7.988720	 5.321456 
1.616	 52.552900	 20.429710	 7.989372	 5.321518 
1.617	 52.550432	 20.428928	 7.990023	 5.321581 
1.618	 52.547967	 20.428147	 7.990673	 5.321643 
1.619	 52.545506	 20.427367	 7.991322	 5.321706 
1.620	 52.543049	 20.426588	 7.991971	 5.321768 
1.621	 52.540595	 20.425810	 7.992619	 5.321830 
1.622	 52.538143	 20.425033	 7.993266	 5.321892 
1.623	 52.535693	 20.424257	 7.993914	 5.321954 
1.624	 52.533246	 20.423482	 7.994560	 5.322016 
1.625	 52.530801	 20.422707	 7.995207	 5.322078 
1.626	 52.528357	 20.421933	 7.995853	 5.322140 
1.627	 52.525914	 20.421159	 7.996499	 5.322202 
1.628	 52.523472	 20.420386	 7.997145	 5.322264 
1.629	 52.521031	 20.419613	 7.997791	 5.322326 
1.630	 52.518589	 20.418840	 7.998438	 5.322388 
1.631	 52.516147	 20.418067	 7.999084	 5.322450 
1.632	 52.513705	 20.417293	 7.999731	 5.322512 
1.633	 52.511261	 20.416520	 8.000379	 5.322573 
1.634	 52.508816	 20.415746	 8.001027	 5.322635 
1.635	 52.506368	 20.414971	 8.001676	 5.322697 
1.636	 52.503918	 20.414196	 8.002325	 5.322759 
1.637	 52.501465	 20.413419	 8.002976	 5.322822 
1.638	 52.499008	 20.412642	 8.003628	 5.322884 
1.639	 52.496547	 20.411863	 8.004281	 5.322946 
1.640	 52.494081	 20.411083	 8.004936	 5.323009 
1.641	 52.491610	 20.410302	 8.005592	 5.323071 
1.642	 52.489134	 20.409518	 8.006250	 5.323134 
1.643	 52.486652	 20.408734	 8.006910	 5.323197 
1.644	 52.484164	 20.407947	 8.007571	 5.323260 
1.645	 52.481669	 20.407158	 8.008234	 5.323323 
1.646	 52.479167	 20.406367	 8.008900	 5.323386 
1.647	 52.476658	 20.405573	 8.009567	 5.323450 
1.648	 52.474142	 20.404778	 8.010237	 5.323514 
1.649	 52.471618	 20.403980	 8.010909	 5.323577 
1.650	 52.469086	 20.403180	 8.011583	 5.323642 
1.651	 52.466546	 20.402377	 8.012260	 5.323706 
1.652	 52.463998	 20.401572	 8.012939	 5.323770 
1.653	 52.461442	 20.400765	 8.013620	 5.323835 
1.654	 52.458878	 20.399955	 8.014303	 5.323900 
1.655	 52.456306	 20.399142	 8.014989	 5.323965 
1.656	 52.453725	 20.398327	 8.015678	 5.324031 
1.657	 52.451136	 20.397509	 8.016369	 5.324096 
1.658	 52.448539	 20.396689	 8.017062	 5.324162 
1.659	 52.445934	 20.395866	 8.017758	 5.324228 
1.660	 52.443320	 20.395041	 8.018456	 5.324294 
1.661	 52.440697	 20.394213	 8.019157	 5.324361 
1.662	 52.438067	 20.393382	 8.019860	 5.324427 
1.663	 52.435428	 20.392549	 8.020566	 5.324494 
1.664	 52.432781	 20.391714	 8.021274	 5.324561 
1.665	 52.430125	 20.390876	 8.021985	 5.324629 
1.666	 52.427462	 20.390035	 8.022697	 5.324696 
1.667	 52.424790	 20.389192	 8.023413	 5.324764 
1.668	 52.422111	 20.388347	 8.024130	 5.324832 
1.669	 52.419423	 20.387499	 8.024851	 5.324900 
1.670	 52.416727	 20.386649	 8.025573	 5.324968 
1.671	 52.414023	 20.385796	 8.026298	 5.325037 
1.672	 52.411312	 20.384941	 8.027025	 5.325106 
1.673	 52.408592	 20.384083	 8.027755	 5.325175 
1.674	 52.405865	 20.383223	 8.028487	 5.325244 
1.675	 52.403131	 20.382361	 8.029221	 5.325313 
1.676	 52.400389	 20.381497	 8.029957	 5.325383 
1.677	 52.397640	 20.380631	 8.030696	 5.325453 
1.678	 52.394885	 20.379762	 8.031436	 5.325523 
1.679	 52.392122	 20.378892	 8.032179	 5.325593 
1.680	 52.389354	 20.378019	 8.032924	 5.325663 
1.681	 52.386579	 20.377145	 8.033670	 5.325733 
1.682	 52.383798	 20.376269	 8.034419	 5.325804 
1.683	 52.381012	 20.375391	 8.035169	 5.325875 
1.684	 52.378222	 20.374512	 8.035920	 5.325946 
1.685	 52.375426	 20.373632	 8.036673	 5.326017 
1.686	 52.372627	 20.372750	 8.037428	 5.326088 
1.687	 52.369824	 20.371868	 8.038184	 5.326159 
1.688	 52.367017	 20.370984	 8.038941	 5.326230 
1.689	 52.364208	 20.370100	 8.039699	 5.326302 
1.690	 52.361397	 20.369215	 8.040457	 5.326373 
1.691	 52.358585	 20.368330	 8.041217	 5.326445 
1.692	 52.355771	 20.367444	 8.041977	 5.326516 
1.693	 52.352957	 20.366558	 8.042737	 5.326588 
1.694	 52.350142	 20.365673	 8.043498	 5.326659 
1.695	 52.347329	 20.364788	 8.044259	 5.326731 
1.696	 52.344516	 20.363903	 8.045019	 5.326802 
1.697	 52.341705	 20.363019	 8.045780	 5.326874 
1.698	 52.338897	 20.362135	 8.046540	 5.326946 
1.699	 52.336090	 20.361253	 8.047300	 5.327017 
1.700	 52.333287	 20.360372	 8.048060	 5.327088 
1.701	 52.330488	 20.359491	 8.048818	 5.327160 
1.702	 52.327693	 20.358613	 8.049576	 5.327231 
1.703	 52.324902	 20.357735	 8.050333	 5.327302 
1.704	 52.322116	 20.356860	 8.051088	 5.327373 
1.705	 52.319336	 20.355986	 8.051843	 5.327444 
1.706	 52.316561	 20.355114	 8.052596	 5.327514 
1.707	 52.313793	 20.354244	 8.053348	 5.327585 
1.708	 52.311031	 20.353376	 8.054098	 5.327655 
1.709	 52.308276	 20.352511	 8.054847	 5.327726 
1.710	 52.305528	 20.351648	 8.055594	 5.327796 
1.711	 52.302788	 20.350787	 8.056339	 5.327866 
1.712	 52.300055	 20.349929	 8.057083	 5.327935 
1.713	 52.297330	 20.349073	 8.057824	 5.328005 
1.714	 52.294614	 20.348220	 8.058564	 5.328074 
1.715	 52.291906	 20.347370	 8.059301	 5.328143 
1.716	 52.289206	 20.346522	 8.060037	 5.328212 
1.717	 52.286516	 20.345678	 8.060770	 5.328281 
1.718	 52.283834	 20.344836	 8.061501	 5.328349 
1.719	 52.281162	 20.343998	 8.062230	 5.328417 
1.720	 52.278499	 20.343162	 8.062956	 5.328485 
1.721	 52.275846	 20.342330	 8.063680	 5.328553 
1.722	 52.273203	 20.341500	 8.064402	 5.328620 
1.723	 52.270570	 20.340674	 8.065121	 5.328688 
1.724	 52.267946	 20.339852	 8.065837	 5.328755 
1.725	 52.265333	 20.339032	 8.066551	 5.328821 
1.726	 52.262730	 20.338216	 8.067263	 5.328888 
1.727	 52.260138	 20.337403	 8.067972	 5.328954 
1.728	 52.257555	 20.336593	 8.068678	 5.329020 
1.729	 52.254983	 20.335786	 8.069382	 5.329086 
1.730	 52.252422	 20.334983	 8.070083	 5.329151 
1.731	 52.249871	 20.334184	 8.070781	 5.329216 
1.732	 52.247330	 20.333387	 8.071477	 5.329281 
1.733	 52.244799	 20.332594	 8.072171	 5.329346 
1.734	 52.242279	 20.331804	 8.072861	 5.329410 
1.735	 52.239768	 20.331018	 8.073549	 5.329475 
1.736	 52.237268	 20.330234	 8.074235	 5.329538 
1.737	 52.234776	 20.329454	 8.074919	 5.329602 
1.738	 52.232294	 20.328676	 8.075600	 5.329666 
1.739	 52.229821	 20.327901	 8.076278	 5.329729 
1.740	 52.227355	 20.327129	 8.076955	 5.329792 
1.741	 52.224898	 20.326360	 8.077630	 5.329855 
1.742	 52.222448	 20.325593	 8.078303	 5.329917 
1.743	 52.220005	 20.324828	 8.078975	 5.329980 
1.744	 52.217569	 20.324065	 8.079644	 5.330042 
1.745	 52.215139	 20.323304	 8.080312	 5.330104 
1.746	 52.212714	 20.322545	 8.080979	 5.330166 
1.747	 52.210294	 20.321787	 8.081645	 5.330228 
1.748	 52.207878	 20.321031	 8.082310	 5.330289 
1.749	 52.205466	 20.320277	 8.082974	 5.330351 
1.750	 52.203058	 20.319523	 8.083637	 5.330413 
1.751	 52.200653	 20.318771	 8.084299	 5.330474 
1.752	 52.198250	 20.318019	 8.084961	 5.330535 
1.753	 52.195850	 20.317268	 8.085623	 5.330597 
1.754	 52.193450	 20.316517	 8.086284	 5.330658 
1.755	 52.191052	 20.315767	 8.086946	 5.330719 
1.756	 52.188654	 20.315017	 8.087607	 5.330780 
1.757	 52.186257	 20.314268	 8.088268	 5.330842 
1.758	 52.183859	 20.313518	 8.088930	 5.330903 
1.759	 52.181460	 20.312768	 8.089592	 5.330964 
1.760	 52.179060	 20.312017	 8.090255	 5.331025 
1.761	 52.176658	 20.311267	 8.090919	 5.331087 
1.762	 52.174255	 20.310515	 8.091583	 5.331148 
1.763	 52.171849	 20.309763	 8.092248	 5.331210 
1.764	 52.169440	 20.309011	 8.092914	 5.331271 
1.765	 52.167028	 20.308257	 8.093581	 5.331333 
1.766	 52.164614	 20.307502	 8.094248	 5.331394 
1.767	 52.162195	 20.306747	 8.094918	 5.331456 
1.768	 52.159772	 20.305990	 8.095588	 5.331518 
1.769	 52.157346	 20.305232	 8.096260	 5.331580 
1.770	 52.154915	 20.304473	 8.096933	 5.331642 
1.771	 52.152479	 20.303712	 8.097608	 5.331704 
1.772	 52.150038	 20.302950	 8.098285	 5.331766 
1.773	 52.147592	 20.302186	 8.098963	 5.331829 
1.774	 52.145141	 20.301420	 8.099642	 5.331892 
1.775	 52.142684	 20.300653	 8.100324	 5.331954 
1.776	 52.140222	 20.299885	 8.101007	 5.332017 
1.777	 52.137754	 20.299114	 8.101692	 5.332080 
1.778	 52.135279	 20.298342	 8.102379	 5.332143 
1.779	 52.132799	 20.297568	 8.103068	 5.332207 
1.780	 52.130312	 20.296792	 8.103759	 5.332270 
1.781	 52.127819	 20.296014	 8.104452	 5.332334 
1.782	 52.125320	 20.295234	 8.105146	 5.332398 
1.783	 52.122814	 20.294452	 8.105843	 5.332462 
1.784	 52.120302	 20.293668	 8.106542	 5.332526 
1.785	 52.117782	 20.292883	 8.107243	 5.332590 
1.786	 52.115257	 20.292095	 8.107946	 5.332655 
1.787	 52.112724	 20.291305	 8.108651	 5.332719 
1.788	 52.110185	 20.290513	 8.109358	 5.332784 
1.789	 52.107640	 20.289720	 8.110067	 5.332849 
1.790	 52.105087	 20.288924	 8.110779	 5.332915 
1.791	 52.102528	 20.288126	 8.111492	 5.332980 
1.792	 52.099963	 20.287326	 8.112207	 5.333046 
1.793	 52.097391	 20.286525	 8.112925	 5.333111 
1.794	 52.094813	 20.285721	 8.113644	 5.333177 
1.795	 52.092228	 20.284916	 8.114366	 5.333243 
1.796	 52.089638	 20.284109	 8.115089	 5.333310 
1.797	 52.087041	 20.283300	 8.115814	 5.333376 
1.798	 52.084438	 20.282489	 8.116542	 5.333442 
1.799	 52.081829	 20.281676	 8.117271	 5.333509 
1.800	 52.079214	 20.280862	 8.118002	 5.333576 
1.801	 52.076594	 20.280046	 8.118735	 5.333643 
1.802	 52.073969	 20.279228	 8.119469	 5.333710 
1.803	 52.071337	 20.278409	 8.120206	 5.333778 
1.804	 52.068701	 20.277588	 8.120944	 5.333845 
1.805	 52.066060	 20.276766	 8.121684	 5.333913 
1.806	 52.063414	 20.275942	 8.122425	 5.333980 
1.807	 52.060763	 20.275117	 8.123168	 5.334048 
1.808	 52.058109	 20.274291	 8.123912	 5.334116 
1.809	 52.055450	 20.273463	 8.124658	 5.334184 
1.810	 52.052787	 20.272635	 8.125405	 5.334252 
1.811	 52.050121	 20.271805	 8.126153	 5.334321 
1.812	 52.047452	 20.270975	 8.126902	 5.334389 
1.813	 52.044780	 20.270144	 8.127653	 5.334457 
1.814	 52.042105	 20.269312	 8.128404	 5.334526 
1.815	 52.039428	 20.268479	 8.129157	 5.334594 
1.816	 52.036749	 20.267646	 8.129910	 5.334663 
1.817	 52.034068	 20.266812	 8.130664	 5.334732 
1.818	 52.031386	 20.265978	 8.131418	 5.334800 
1.819	 52.028702	 20.265144	 8.132174	 5.334869 
1.820	 52.026016	 20.264309	 8.132930	 5.334938 
1.821	 52.023330	 20.263474	 8.133686	 5.335007 
1.822	 52.020642	 20.262639	 8.134444	 5.335076 
1.823	 52.017954	 20.261803	 8.135201	 5.335145 
1.824	 52.015265	 20.260968	 8.135959	 5.335214 
1.825	 52.012575	 20.260132	 8.136718	 5.335283 
1.826	 52.009885	 20.259296	 8.137477	 5.335352 
1.827	 52.007194	 20.258460	 8.138236	 5.335421 
1.828	 52.004503	 20.257624	 8.138996	 5.335490 
1.829	 52.001811	 20.256788	 8.139756	 5.335559 
1.830	 51.999119	 20.255952	 8.140516	 5.335628 
1.831	 51.996427	 20.255116	 8.141277	 5.335697 
1.832	 51.993734	 20.254280	 8.142038	 5.335766 
1.833	 51.991041	 20.253444	 8.142800	 5.335835 
1.834	 51.988348	 20.252608	 8.143562	 5.335904 
1.835	 51.985654	 20.251772	 8.144324	 5.335973 
1.836	 51.982961	 20.250936	 8.145087	 5.336042 
1.837	 51.980268	 20.250100	 8.145849	 5.336111 
1.838	 51.977575	 20.249265	 8.146612	 5.336181 
1.839	 51.974882	 20.248429	 8.147375	 5.336250 
1.840	 51.972190	 20.247594	 8.148138	 5.336319 
1.841	 51.969499	 20.246759	 8.148901	 5.336388 
1.842	 51.966808	 20.245924	 8.149665	 5.336457 
1.843	 51.964117	 20.245090	 8.150428	 5.336526 
1.844	 51.961428	 20.244256	 8.151191	 5.336595 
1.845	 51.958740	 20.243423	 8.151955	 5.336664 
1.846	 51.956053	 20.242589	 8.152718	 5.336733 
1.847	 51.953367	 20.241757	 8.153481	 5.336802 
1.848	 51.950683	 20.240925	 8.154244	 5.336871 
1.849	 51.948000	 20.240093	 8.155007	 5.336940 
1.850	 51.945318	 20.239262	 8.155770	 5.337009 
1.851	 51.942638	 20.238431	 8.156533	 5.337078 
1.852	 51.939960	 20.237601	 8.157295	 5.337147 
1.853	 51.937283	 20.236772	 8.158057	 5.337215 
1.854	 51.934609	 20.235943	 8.158819	 5.337284 
1.855	 51.931936	 20.235115	 8.159580	 5.337353 
1.856	 51.929265	 20.234288	 8.160342	 5.337421 
1.857	 51.926596	 20.233462	 8.161103	 5.337490 
1.858	 51.923929	 20.232636	 8.161863	 5.337559 
1.859	 51.921265	 20.231811	 8.162624	 5.337627 
1.860	 51.918603	 20.230987	 8.163383	 5.337696 
1.861	 51.915943	 20.230163	 8.164143	 5.337764 
1.862	 51.913286	 20.229341	 8.164902	 5.337832 
1.863	 51.910632	 20.228519	 8.165660	 5.337901 
1.864	 51.907980	 20.227698	 8.166418	 5.337969 
1.865	 51.905331	 20.226878	 8.167175	 5.338037 
1.866	 51.902685	 20.226060	 8.167932	 5.338105 
1.867	 51.900042	 20.225242	 8.168688	 5.338173 
1.868	 51.897402	 20.224425	 8.169444	 5.338241 
1.869	 51.894765	 20.223609	 8.170199	 5.338309 
1.870	 51.892132	 20.222795	 8.170953	 5.338376 
1.871	 51.889502	 20.221982	 8.171707	 5.338444 
1.872	 51.886876	 20.221169	 8.172459	 5.338512 
1.873	 51.884254	 20.220359	 8.173211	 5.338579 
1.874	 51.881635	 20.219549	 8.173962	 5.338647 
1.875	 51.879021	 20.218741	 8.174712	 5.338714 
1.876	 51.876411	 20.217934	 8.175461	 5.338781 
1.877	 51.873805	 20.217128	 8.176209	 5.338848 
1.878	 51.871203	 20.216324	 8.176956	 5.338915 
1.879	 51.868606	 20.215521	 8.177702	 5.338982 
1.880	 51.866014	 20.214720	 8.178447	 5.339049 
1.881	 51.863426	 20.213921	 8.179191	 5.339116 
1.882	 51.860844	 20.213123	 8.179934	 5.339182 
1.883	 51.858266	 20.212327	 8.180675	 5.339249 
1.884	 51.855694	 20.211532	 8.181415	 5.339315 
1.885	 51.853127	 20.210739	 8.182154	 5.339381 
1.886	 51.850566	 20.209948	 8.182892	 5.339447 
1.887	 51.848010	 20.209159	 8.183628	 5.339513 
1.888	 51.845460	 20.208371	 8.184363	 5.339579 
1.889	 51.842916	 20.207586	 8.185096	 5.339644 
1.890	 51.840379	 20.206803	 8.185827	 5.339710 
1.891	 51.837848	 20.206021	 8.186557	 5.339775 
1.892	 51.835323	 20.205242	 8.187286	 5.339840 
1.893	 51.832805	 20.204465	 8.188013	 5.339905 
1.894	 51.830295	 20.203690	 8.188737	 5.339970 
1.895	 51.827791	 20.202917	 8.189460	 5.340034 
1.896	 51.825294	 20.202147	 8.190182	 5.340099 
1.897	 51.822804	 20.201379	 8.190901	 5.340163 
1.898	 51.820322	 20.200613	 8.191619	 5.340227 
1.899	 51.817847	 20.199850	 8.192335	 5.340291 
1.900	 51.815380	 20.199089	 8.193048	 5.340354 
1.901	 51.812920	 20.198330	 8.193760	 5.340418 
1.902	 51.810467	 20.197574	 8.194470	 5.340481 
1.903	 51.808022	 20.196820	 8.195178	 5.340544 
1.904	 51.805584	 20.196068	 8.195884	 5.340607 
1.905	 51.803153	 20.195318	 8.196588	 5.340670 
1.906	 51.800729	 20.194571	 8.197291	 5.340733 
1.907	 51.798311	 20.193826	 8.197992	 5.340795 
1.908	 51.795901	 20.193083	 8.198691	 5.340857 
1.909	 51.793497	 20.192342	 8.199388	 5.340919 
1.910	 51.791099	 20.191603	 8.200084	 5.340981 
1.911	 51.788707	 20.190866	 8.200778	 5.341043 
1.912	 51.786320	 20.190131	 8.201471	 5.341104 
1.913	 51.783940	 20.189397	 8.202163	 5.341166 
1.914	 51.781564	 20.188665	 8.202853	 5.341227 
1.915	 51.779193	 20.187935	 8.203542	 5.341288 
1.916	 51.776827	 20.187206	 8.204230	 5.341350 
1.917	 51.774466	 20.186479	 8.204916	 5.341411 
1.918	 51.772108	 20.185753	 8.205602	 5.341471 
1.919	 51.769754	 20.185028	 8.206287	 5.341532 
1.920	 51.767403	 20.184304	 8.206971	 5.341593 
1.921	 51.765055	 20.183581	 8.207655	 5.341653 
1.922	 51.762710	 20.182860	 8.208337	 5.341714 
1.923	 51.760367	 20.182138	 8.209020	 5.341774 
1.924	 51.758026	 20.181418	 8.209702	 5.341835 
1.925	 51.755686	 20.180698	 8.210384	 5.341895 
1.926	 51.753347	 20.179978	 8.211066	 5.341956 
1.927	 51.751010	 20.179259	 8.211747	 5.342016 
1.928	 51.748673	 20.178540	 8.212429	 5.342076 
1.929	 51.746336	 20.177821	 8.213111	 5.342137 
1.930	 51.743999	 20.177102	 8.213793	 5.342197 
1.931	 51.741662	 20.176383	 8.214476	 5.342257 
1.932	 51.739325	 20.175664	 8.215158	 5.342318 
1.933	 51.736987	 20.174945	 8.215841	 5.342378 
1.934	 51.734647	 20.174225	 8.216525	 5.342438 
1.935	 51.732307	 20.173506	 8.217209	 5.342499 
1.936	 51.729966	 20.172786	 8.217893	 5.342559 
1.937	 51.727623	 20.172066	 8.218579	 5.342620 
1.938	 51.725278	 20.171345	 8.219265	 5.342680 
1.939	 51.722932	 20.170624	 8.219951	 5.342741 
1.940	 51.720584	 20.169902	 8.220639	 5.342801 
1.941	 51.718234	 20.169180	 8.221327	 5.342862 
1.942	 51.715882	 20.168457	 8.222016	 5.342923 
1.943	 51.713528	 20.167734	 8.222706	 5.342983 
1.944	 51.711172	 20.167010	 8.223396	 5.343044 
1.945	 51.708813	 20.166285	 8.224088	 5.343105 
1.946	 51.706452	 20.165560	 8.224780	 5.343166 
1.947	 51.704088	 20.164833	 8.225474	 5.343227 
1.948	 51.701721	 20.164106	 8.226168	 5.343288 
1.949	 51.699352	 20.163379	 8.226864	 5.343349 
1.950	 51.696979	 20.162650	 8.227561	 5.343411 
1.951	 51.694603	 20.161920	 8.228258	 5.343472 
1.952	 51.692224	 20.161190	 8.228957	 5.343534 
1.953	 51.689841	 20.160458	 8.229658	 5.343595 
1.954	 51.687454	 20.159726	 8.230360	 5.343657 
1.955	 51.685064	 20.158992	 8.231062	 5.343718 
1.956	 51.682669	 20.158257	 8.231767	 5.343780 
1.957	 51.680270	 20.157520	 8.232473	 5.343842 
1.958	 51.677866	 20.156783	 8.233180	 5.343904 
1.959	 51.675458	 20.156044	 8.233889	 5.343967 
1.960	 51.673044	 20.155303	 8.234600	 5.344029 
1.961	 51.670626	 20.154561	 8.235313	 5.344091 
1.962	 51.668202	 20.153818	 8.236027	 5.344154 
1.963	 51.665772	 20.153072	 8.236744	 5.344217 
1.964	 51.663336	 20.152325	 8.237462	 5.344280 
1.965	 51.660895	 20.151576	 8.238182	 5.344343 
1.966	 51.658447	 20.150826	 8.238904	 5.344406 
1.967	 51.655993	 20.150073	 8.239629	 5.344469 
1.968	 51.653533	 20.149319	 8.240355	 5.344533 
1.969	 51.651066	 20.148563	 8.241084	 5.344597 
1.970	 51.648593	 20.147804	 8.241814	 5.344660 
1.971	 51.646113	 20.147044	 8.242547	 5.344725 
1.972	 51.643627	 20.146282	 8.243282	 5.344789 
1.973	 51.641134	 20.145518	 8.244019	 5.344853 
1.974	 51.638634	 20.144752	 8.244759	 5.344918 
1.975	 51.636128	 20.143984	 8.245501	 5.344983 
1.976	 51.633615	 20.143215	 8.246245	 5.345048 
1.977	 51.631095	 20.142443	 8.246991	 5.345113 
1.978	 51.628569	 20.141669	 8.247739	 5.345178 
1.979	 51.626035	 20.140892	 8.248490	 5.345243 
1.980	 51.623494	 20.140114	 8.249243	 5.345309 
1.981	 51.620945	 20.139334	 8.249999	 5.345375 
1.982	 51.618389	 20.138551	 8.250757	 5.345441 
1.983	 51.615825	 20.137766	 8.251518	 5.345507 
1.984	 51.613253	 20.136978	 8.252281	 5.345574 
1.985	 51.610673	 20.136189	 8.253047	 5.345641 
1.986	 51.608084	 20.135396	 8.253816	 5.345707 
1.987	 51.605487	 20.134601	 8.254588	 5.345775 
1.988	 51.602881	 20.133804	 8.255362	 5.345842 
1.989	 51.600266	 20.133003	 8.256139	 5.345910 
1.990	 51.597641	 20.132200	 8.256920	 5.345977 
1.991	 51.595007	 20.131394	 8.257704	 5.346046 
1.992	 51.592363	 20.130586	 8.258491	 5.346114 
1.993	 51.589710	 20.129774	 8.259280	 5.346183 
1.994	 51.587047	 20.128959	 8.260073	 5.346251 
1.995	 51.584373	 20.128142	 8.260870	 5.346321 
1.996	 51.581690	 20.127321	 8.261669	 5.346390 
1.997	 51.578996	 20.126497	 8.262473	 5.346460 
1.998	 51.576292	 20.125671	 8.263279	 5.346530 
1.999	 51.573578	 20.124841	 8.264089	 5.346600 
2.000	 51.570853	 20.124008	 8.264902	 5.346670 
2.001	 51.568118	 20.123172	 8.265718	 5.346741 
2.002	 51.565373	 20.122333	 8.266538	 5.346812 
2.003	 51.562617	 20.121491	 8.267361	 5.346883 
2.004	 51.559852	 20.120646	 8.268188	 5.346955 
2.005	 51.557077	 20.119798	 8.269017	 5.347027 
2.006	 51.554291	 20.118947	 8.269851	 5.347099 
2.007	 51.551497	 20.118093	 8.270687	 5.347171 
2.008	 51.548693	 20.117237	 8.271526	 5.347244 
2.009	 51.545879	 20.116378	 8.272368	 5.347317 
2.010	 51.543057	 20.115516	 8.273213	 5.347390 
2.011	 51.540227	 20.114652	 8.274061	 5.347463 
2.012	 51.537388	 20.113785	 8.274912	 5.347537 
2.013	 51.534541	 20.112916	 8.275766	 5.347610 
2.014	 51.531687	 20.112045	 8.276622	 5.347684 
2.015	 51.528826	 20.111172	 8.277481	 5.347758 
2.016	 51.525959	 20.110297	 8.278342	 5.347833 
2.017	 51.523085	 20.109420	 8.279205	 5.347907 
2.018	 51.520206	 20.108541	 8.280070	 5.347982 
2.019	 51.517322	 20.107661	 8.280936	 5.348057 
2.020	 51.514434	 20.106780	 8.281805	 5.348131 
2.021	 51.511541	 20.105898	 8.282675	 5.348207 
2.022	 51.508644	 20.105014	 8.283547	 5.348282 
2.023	 51.505745	 20.104130	 8.284419	 5.348357 
2.024	 51.502843	 20.103245	 8.285293	 5.348432 
2.025	 51.499938	 20.102360	 8.286168	 5.348508 
2.026	 51.497032	 20.101474	 8.287044	 5.348583 
2.027	 51.494124	 20.100587	 8.287921	 5.348658 
2.028	 51.491215	 20.099701	 8.288798	 5.348734 
2.029	 51.488305	 20.098814	 8.289676	 5.348810 
2.030	 51.485393	 20.097927	 8.290555	 5.348885 
2.031	 51.482482	 20.097039	 8.291434	 5.348961 
2.032	 51.479570	 20.096152	 8.292314	 5.349036 
2.033	 51.476657	 20.095265	 8.293194	 5.349112 
2.034	 51.473745	 20.094378	 8.294075	 5.349188 
2.035	 51.470833	 20.093491	 8.294955	 5.349263 
2.036	 51.467922	 20.092604	 8.295836	 5.349339 
2.037	 51.465011	 20.091718	 8.296717	 5.349415 
2.038	 51.462101	 20.090832	 8.297598	 5.349490 
2.039	 51.459192	 20.089947	 8.298479	 5.349566 
2.040	 51.456286	 20.089062	 8.299360	 5.349642 
2.041	 51.453381	 20.088177	 8.300240	 5.349717 
2.042	 51.450478	 20.087294	 8.301121	 5.349793 
2.043	 51.447577	 20.086411	 8.302001	 5.349868 
2.044	 51.444680	 20.085530	 8.302880	 5.349943 
2.045	 51.441786	 20.084649	 8.303759	 5.350019 
2.046	 51.438895	 20.083770	 8.304637	 5.350094 
2.047	 51.436008	 20.082892	 8.305514	 5.350169 
2.048	 51.433126	 20.082015	 8.306390	 5.350244 
2.049	 51.430248	 20.081140	 8.307265	 5.350319 
2.050	 51.427375	 20.080266	 8.308139	 5.350394 
2.051	 51.424508	 20.079395	 8.309011	 5.350468 
2.052	 51.421646	 20.078524	 8.309883	 5.350543 
2.053	 51.418791	 20.077656	 8.310752	 5.350617 
2.054	 51.415941	 20.076790	 8.311620	 5.350691 
2.055	 51.413098	 20.075926	 8.312487	 5.350765 
2.056	 51.410262	 20.075064	 8.313351	 5.350839 
2.057	 51.407433	 20.074205	 8.314214	 5.350913 
2.058	 51.404610	 20.073347	 8.315076	 5.350987 
2.059	 51.401795	 20.072492	 8.315935	 5.351060 
2.060	 51.398987	 20.071639	 8.316792	 5.351133 
2.061	 51.396185	 20.070788	 8.317648	 5.351206 
2.062	 51.393391	 20.069939	 8.318502	 5.351279 
2.063	 51.390604	 20.069093	 8.319354	 5.351352 
2.064	 51.387823	 20.068248	 8.320204	 5.351424 
2.065	 51.385048	 20.067406	 8.321053	 5.351496 
2.066	 51.382280	 20.066566	 8.321900	 5.351569 
2.067	 51.379517	 20.065727	 8.322746	 5.351641 
2.068	 51.376760	 20.064890	 8.323590	 5.351712 
2.069	 51.374008	 20.064055	 8.324433	 5.351784 
2.070	 51.371260	 20.063221	 8.325276	 5.351856 
2.071	 51.368517	 20.062388	 8.326116	 5.351927 
2.072	 51.365777	 20.061557	 8.326957	 5.351999 
2.073	 51.363040	 20.060727	 8.327796	 5.352070 
2.074	 51.360306	 20.059898	 8.328635	 5.352141 
2.075	 51.357575	 20.059069	 8.329474	 5.352212 
2.076	 51.354845	 20.058241	 8.330312	 5.352284 
2.077	 51.352117	 20.057414	 8.331150	 5.352355 
2.078	 51.349391	 20.056587	 8.331988	 5.352426 
2.079	 51.346665	 20.055761	 8.332826	 5.352497 
2.080	 51.343940	 20.054935	 8.333664	 5.352568 
2.081	 51.341216	 20.054109	 8.334502	 5.352639 
2.082	 51.338491	 20.053283	 8.335341	 5.352710 
2.083	 51.335767	 20.052457	 8.336179	 5.352781 
2.084	 51.333042	 20.051632	 8.337018	 5.352852 
2.085	 51.330317	 20.050806	 8.337858	 5.352923 
2.086	 51.327591	 20.049980	 8.338698	 5.352994 
2.087	 51.324865	 20.049154	 8.339538	 5.353065 
2.088	 51.322137	 20.048328	 8.340380	 5.353136 
2.089	 51.319409	 20.047502	 8.341221	 5.353207 
2.090	 51.316679	 20.046675	 8.342064	 5.353279 
2.091	 51.313948	 20.045848	 8.342907	 5.353350 
2.092	 51.311215	 20.045020	 8.343751	 5.353421 
2.093	 51.308481	 20.044192	 8.344596	 5.353492 
2.094	 51.305745	 20.043364	 8.345441	 5.353564 
2.095	 51.303007	 20.042535	 8.346288	 5.353635 
2.096	 51.300266	 20.041706	 8.347136	 5.353707 
2.097	 51.297523	 20.040875	 8.347984	 5.353778 
2.098	 51.294777	 20.040044	 8.348834	 5.353850 
2.099	 51.292027	 20.039212	 8.349686	 5.353921 
2.100	 51.289274	 20.038379	 8.350538	 5.353993 
2.101	 51.286516	 20.037545	 8.351393	 5.354065 
2.102	 51.283753	 20.036709	 8.352249	 5.354137 
2.103	 51.280985	 20.035872	 8.353108	 5.354209 
2.104	 51.278211	 20.035033	 8.353968	 5.354282 
2.105	 51.275431	 20.034192	 8.354831	 5.354354 
2.106	 51.272643	 20.033349	 8.355696	 5.354427 
2.107	 51.269848	 20.032504	 8.356564	 5.354500 
2.108	 51.267044	 20.031656	 8.357435	 5.354573 
2.109	 51.264231	 20.030806	 8.358309	 5.354646 
2.110	 51.261408	 20.029953	 8.359186	 5.354720 
2.111	 51.258575	 20.029097	 8.360067	 5.354794 
2.112	 51.255731	 20.028237	 8.360952	 5.354868 
2.113	 51.252876	 20.027375	 8.361840	 5.354942 
2.114	 51.250009	 20.026508	 8.362733	 5.355017 
2.115	 51.247130	 20.025639	 8.363629	 5.355092 
2.116	 51.244237	 20.024765	 8.364530	 5.355167 
2.117	 51.241332	 20.023887	 8.365436	 5.355243 
2.118	 51.238412	 20.023006	 8.366346	 5.355319 
2.119	 51.235479	 20.022120	 8.367261	 5.355396 
2.120	 51.232532	 20.021230	 8.368180	 5.355472 
2.121	 51.229570	 20.020336	 8.369105	 5.355550 
2.122	 51.226594	 20.019437	 8.370034	 5.355627 
2.123	 51.223603	 20.018535	 8.370968	 5.355705 
2.124	 51.220598	 20.017628	 8.371907	 5.355784 
2.125	 51.217577	 20.016716	 8.372852	 5.355862 
2.126	 51.214542	 20.015800	 8.373801	 5.355942 
2.127	 51.211491	 20.014880	 8.374756	 5.356021 
2.128	 51.208426	 20.013955	 8.375715	 5.356101 
2.129	 51.205347	 20.013026	 8.376679	 5.356181 
2.130	 51.202252	 20.012093	 8.377649	 5.356262 
2.131	 51.199143	 20.011155	 8.378623	 5.356343 
2.132	 51.196020	 20.010214	 8.379602	 5.356425 
2.133	 51.192882	 20.009268	 8.380586	 5.356507 
2.134	 51.189730	 20.008317	 8.381575	 5.356589 
2.135	 51.186564	 20.007363	 8.382569	 5.356672 
2.136	 51.183384	 20.006404	 8.383568	 5.356755 
2.137	 51.180190	 20.005442	 8.384571	 5.356838 
2.138	 51.176983	 20.004475	 8.385580	 5.356922 
2.139	 51.173761	 20.003505	 8.386593	 5.357006 
2.140	 51.170525	 20.002530	 8.387611	 5.357090 
2.141	 51.167276	 20.001551	 8.388633	 5.357175 
2.142	 51.164013	 20.000568	 8.389661	 5.357260 
2.143	 51.160736	 19.999582	 8.390693	 5.357346 
2.144	 51.157446	 19.998591	 8.391730	 5.357432 
2.145	 51.154142	 19.997596	 8.392772	 5.357518 
2.146	 51.150825	 19.996597	 8.393818	 5.357605 
2.147	 51.147494	 19.995595	 8.394869	 5.357692 
2.148	 51.144150	 19.994588	 8.395925	 5.357779 
2.149	 51.140794	 19.993578	 8.396985	 5.357867 
2.150	 51.137424	 19.992564	 8.398050	 5.357955 
2.151	 51.134042	 19.991547	 8.399119	 5.358044 
2.152	 51.130648	 19.990526	 8.400192	 5.358132 
2.153	 51.127242	 19.989501	 8.401270	 5.358222 
2.154	 51.123825	 19.988473	 8.402352	 5.358311 
2.155	 51.120397	 19.987442	 8.403438	 5.358401 
2.156	 51.116958	 19.986409	 8.404527	 5.358491 
2.157	 51.113510	 19.985372	 8.405620	 5.358581 
2.158	 51.110052	 19.984333	 8.406717	 5.358671 
2.159	 51.106587	 19.983291	 8.407817	 5.358762 
2.160	 51.103113	 19.982247	 8.408920	 5.358853 
2.161	 51.099633	 19.981201	 8.410025	 5.358944 
2.162	 51.096147	 19.980154	 8.411133	 5.359036 
2.163	 51.092656	 19.979105	 8.412243	 5.359127 
2.164	 51.089160	 19.978055	 8.413355	 5.359219 
2.165	 51.085660	 19.977004	 8.414469	 5.359310 
2.166	 51.082158	 19.975952	 8.415584	 5.359402 
2.167	 51.078653	 19.974900	 8.416700	 5.359494 
2.168	 51.075147	 19.973847	 8.417818	 5.359586 
2.169	 51.071640	 19.972794	 8.418936	 5.359678 
2.170	 51.068133	 19.971742	 8.420055	 5.359770 
2.171	 51.064626	 19.970689	 8.421174	 5.359862 
2.172	 51.061120	 19.969637	 8.422294	 5.359954 
2.173	 51.057615	 19.968586	 8.423414	 5.360046 
2.174	 51.054112	 19.967535	 8.424533	 5.360138 
2.175	 51.050612	 19.966485	 8.425653	 5.360230 
2.176	 51.047113	 19.965435	 8.426772	 5.360322 
2.177	 51.043617	 19.964387	 8.427891	 5.360414 
2.178	 51.040125	 19.963340	 8.429009	 5.360505 
2.179	 51.036635	 19.962293	 8.430128	 5.360597 
2.180	 51.033149	 19.961248	 8.431245	 5.360689 
2.181	 51.029666	 19.960204	 8.432362	 5.360780 
2.182	 51.026186	 19.959162	 8.433479	 5.360872 
2.183	 51.022710	 19.958120	 8.434594	 5.360963 
2.184	 51.019238	 19.957080	 8.435710	 5.361054 
2.185	 51.015769	 19.956040	 8.436824	 5.361145 
2.186	 51.012304	 19.955002	 8.437938	 5.361236 
2.187	 51.008842	 19.953966	 8.439051	 5.361327 
2.188	 51.005384	 19.952930	 8.440164	 5.361418 
2.189	 51.001930	 19.951896	 8.441276	 5.361509 
2.190	 50.998479	 19.950862	 8.442387	 5.361600 
2.191	 50.995032	 19.949831	 8.443498	 5.361691 
2.192	 50.991589	 19.948800	 8.444608	 5.361781 
2.193	 50.988150	 19.947771	 8.445717	 5.361872 
2.194	 50.984715	 19.946743	 8.446825	 5.361962 
2.195	 50.981284	 19.945716	 8.447933	 5.362052 
2.196	 50.977858	 19.944691	 8.449039	 5.362142 
2.197	 50.974436	 19.943668	 8.450145	 5.362232 
2.198	 50.971019	 19.942646	 8.451249	 5.362322 
2.199	 50.967608	 19.941625	 8.452353	 5.362412 
2.200	 50.964201	 19.940607	 8.453455	 5.362502 
2.201	 50.960801	 19.939590	 8.454556	 5.362591 
2.202	 50.957406	 19.938575	 8.455655	 5.362681 
2.203	 50.954018	 19.937562	 8.456753	 5.362770 
2.204	 50.950637	 19.936552	 8.457849	 5.362859 
2.205	 50.947263	 19.935543	 8.458943	 5.362948 
2.206	 50.943896	 19.934537	 8.460036	 5.363037 
2.207	 50.940536	 19.933533	 8.461126	 5.363125 
2.208	 50.937184	 19.932532	 8.462215	 5.363213 
2.209	 50.933839	 19.931533	 8.463302	 5.363302 
2.210	 50.930502	 19.930536	 8.464387	 5.363390 
2.211	 50.927173	 19.929542	 8.465469	 5.363477 
2.212	 50.923853	 19.928551	 8.466549	 5.363565 
2.213	 50.920540	 19.927562	 8.467628	 5.363652 
2.214	 50.917235	 19.926575	 8.468704	 5.363739 
2.215	 50.913939	 19.925591	 8.469778	 5.363826 
2.216	 50.910650	 19.924610	 8.470850	 5.363913 
2.217	 50.907370	 19.923631	 8.471919	 5.363999 
2.218	 50.904098	 19.922655	 8.472987	 5.364086 
2.219	 50.900834	 19.921681	 8.474052	 5.364172 
2.220	 50.897579	 19.920710	 8.475115	 5.364258 
2.221	 50.894331	 19.919741	 8.476176	 5.364343 
2.222	 50.891091	 19.918775	 8.477235	 5.364429 
2.223	 50.887860	 19.917811	 8.478291	 5.364514 
2.224	 50.884637	 19.916850	 8.479345	 5.364599 
2.225	 50.881422	 19.915891	 8.480398	 5.364684 
2.226	 50.878215	 19.914935	 8.481447	 5.364769 
2.227	 50.875016	 19.913982	 8.482495	 5.364853 
2.228	 50.871826	 19.913031	 8.483541	 5.364937 
2.229	 50.868643	 19.912083	 8.484584	 5.365021 
2.230	 50.865470	 19.911137	 8.485625	 5.365105 
2.231	 50.862305	 19.910194	 8.486663	 5.365189 
2.232	 50.859148	 19.909254	 8.487699	 5.365272 
2.233	 50.856000	 19.908316	 8.488733	 5.365355 
2.234	 50.852861	 19.907381	 8.489764	 5.365438 
2.235	 50.849731	 19.906449	 8.490793	 5.365521 
2.236	 50.846610	 19.905520	 8.491819	 5.365603 
2.237	 50.843497	 19.904593	 8.492843	 5.365686 
2.238	 50.840394	 19.903669	 8.493864	 5.365768 
2.239	 50.837301	 19.902748	 8.494883	 5.365849 
2.240	 50.834216	 19.901830	 8.495899	 5.365931 
2.241	 50.831140	 19.900915	 8.496912	 5.366012 
2.242	 50.828074	 19.900002	 8.497923	 5.366093 
2.243	 50.825017	 19.899093	 8.498931	 5.366174 
2.244	 50.821969	 19.898186	 8.499937	 5.366255 
2.245	 50.818930	 19.897282	 8.500940	 5.366335 
2.246	 50.815899	 19.896380	 8.501940	 5.366415 
2.247	 50.812877	 19.895482	 8.502939	 5.366495 
2.248	 50.809864	 19.894586	 8.503934	 5.366575 
2.249	 50.806859	 19.893692	 8.504928	 5.366654 
2.250	 50.803862	 19.892801	 8.505919	 5.366733 
2.251	 50.800873	 19.891912	 8.506908	 5.366812 
2.252	 50.797891	 19.891026	 8.507895	 5.366891 
2.253	 50.794916	 19.890142	 8.508880	 5.366970 
2.254	 50.791948	 19.889260	 8.509863	 5.367048 
2.255	 50.788987	 19.888380	 8.510845	 5.367127 
2.256	 50.786032	 19.887502	 8.511824	 5.367205 
2.257	 50.783083	 19.886626	 8.512802	 5.367283 
2.258	 50.780140	 19.885752	 8.513779	 5.367361 
2.259	 50.777202	 19.884879	 8.514754	 5.367438 
2.260	 50.774270	 19.884008	 8.515728	 5.367516 
2.261	 50.771343	 19.883139	 8.516700	 5.367593 
2.262	 50.768421	 19.882271	 8.517671	 5.367671 
2.263	 50.765504	 19.881405	 8.518641	 5.367748 
2.264	 50.762591	 19.880540	 8.519609	 5.367825 
2.265	 50.759683	 19.879677	 8.520577	 5.367902 
2.266	 50.756779	 19.878815	 8.521544	 5.367979 
2.267	 50.753880	 19.877955	 8.522509	 5.368055 
2.268	 50.750985	 19.877096	 8.523473	 5.368132 
2.269	 50.748094	 19.876238	 8.524437	 5.368208 
2.270	 50.745208	 19.875382	 8.525399	 5.368285 
2.271	 50.742325	 19.874527	 8.526360	 5.368361 
2.272	 50.739447	 19.873673	 8.527320	 5.368437 
2.273	 50.736573	 19.872820	 8.528280	 5.368513 
2.274	 50.733703	 19.871969	 8.529238	 5.368589 
2.275	 50.730838	 19.871119	 8.530195	 5.368665 
2.276	 50.727976	 19.870271	 8.531151	 5.368741 
2.277	 50.725118	 19.869424	 8.532107	 5.368817 
2.278	 50.722264	 19.868578	 8.533061	 5.368892 
2.279	 50.719415	 19.867733	 8.534014	 5.368968 
2.280	 50.716569	 19.866889	 8.534967	 5.369043 
2.281	 50.713726	 19.866047	 8.535919	 5.369118 
2.282	 50.710888	 19.865206	 8.536869	 5.369194 
2.283	 50.708053	 19.864366	 8.537819	 5.369269 
2.284	 50.705221	 19.863527	 8.538769	 5.369344 
2.285	 50.702393	 19.862689	 8.539717	 5.369419 
2.286	 50.699569	 19.861853	 8.540664	 5.369493 
2.287	 50.696748	 19.861017	 8.541611	 5.369568 
2.288	 50.693930	 19.860183	 8.542557	 5.369643 
2.289	 50.691115	 19.859349	 8.543503	 5.369717 
2.290	 50.688304	 19.858517	 8.544447	 5.369792 
2.291	 50.685496	 19.857685	 8.545391	 5.369866 
2.292	 50.682690	 19.856855	 8.546334	 5.369941 
2.293	 50.679888	 19.856025	 8.547277	 5.370015 
2.294	 50.677088	 19.855197	 8.548219	 5.370089 
2.295	 50.674292	 19.854369	 8.549160	 5.370163 
2.296	 50.671498	 19.853542	 8.550101	 5.370237 
2.297	 50.668706	 19.852716	 8.551042	 5.370311 
2.298	 50.665917	 19.851891	 8.551982	 5.370385 
2.299	 50.663131	 19.851067	 8.552921	 5.370459 
2.300	 50.660346	 19.850244	 8.553860	 5.370533 
2.301	 50.657564	 19.849421	 8.554799	 5.370607 
2.302	 50.654784	 19.848599	 8.555737	 5.370680 
2.303	 50.652006	 19.847777	 8.556675	 5.370754 
2.304	 50.649230	 19.846956	 8.557613	 5.370828 
2.305	 50.646456	 19.846136	 8.558551	 5.370901 
2.306	 50.643683	 19.845316	 8.559488	 5.370975 
2.307	 50.640912	 19.844497	 8.560425	 5.371048 
2.308	 50.638143	 19.843679	 8.561362	 5.371122 
2.309	 50.635376	 19.842861	 8.562298	 5.371195 
2.310	 50.632611	 19.842044	 8.563235	 5.371269 
2.311	 50.629848	 19.841228	 8.564170	 5.371342 
2.312	 50.627086	 19.840412	 8.565106	 5.371415 
2.313	 50.624327	 19.839597	 8.566041	 5.371488 
2.314	 50.621570	 19.838782	 8.566976	 5.371561 
2.315	 50.618815	 19.837969	 8.567911	 5.371635 
2.316	 50.616062	 19.837156	 8.568845	 5.371708 
2.317	 50.613312	 19.836343	 8.569779	 5.371781 
2.318	 50.610564	 19.835532	 8.570712	 5.371854 
2.319	 50.607819	 19.834722	 8.571644	 5.371926 
2.320	 50.605077	 19.833912	 8.572576	 5.371999 
2.321	 50.602337	 19.833103	 8.573508	 5.372072 
2.322	 50.599599	 19.832295	 8.574439	 5.372145 
2.323	 50.596865	 19.831488	 8.575369	 5.372217 
2.324	 50.594133	 19.830682	 8.576299	 5.372290 
2.325	 50.591404	 19.829877	 8.577229	 5.372362 
2.326	 50.588678	 19.829073	 8.578157	 5.372435 
2.327	 50.585955	 19.828269	 8.579085	 5.372507 
2.328	 50.583235	 19.827467	 8.580012	 5.372579 
2.329	 50.580519	 19.826666	 8.580939	 5.372652 
2.330	 50.577805	 19.825866	 8.581865	 5.372724 
2.331	 50.575095	 19.825066	 8.582790	 5.372796 
2.332	 50.572389	 19.824268	 8.583713	 5.372868 
2.333	 50.569687	 19.823472	 8.584636	 5.372939 
2.334	 50.566989	 19.822676	 8.585558	 5.373011 
2.335	 50.564295	 19.821882	 8.586479	 5.373083 
2.336	 50.561605	 19.821089	 8.587399	 5.373154 
2.337	 50.558920	 19.820298	 8.588317	 5.373226 
2.338	 50.556241	 19.819508	 8.589234	 5.373297 
2.339	 50.553567	 19.818720	 8.590149	 5.373368 
2.340	 50.550898	 19.817934	 8.591063	 5.373439 
2.341	 50.548236	 19.817150	 8.591975	 5.373510 
2.342	 50.545580	 19.816367	 8.592886	 5.373581 
2.343	 50.542931	 19.815587	 8.593794	 5.373651 
2.344	 50.540289	 19.814809	 8.594700	 5.373721 
2.345	 50.537654	 19.814033	 8.595604	 5.373792 
2.346	 50.535027	 19.813259	 8.596506	 5.373861 
2.347	 50.532408	 19.812488	 8.597405	 5.373931 
2.348	 50.529797	 19.811720	 8.598302	 5.374001 
2.349	 50.527195	 19.810953	 8.599196	 5.374070 
2.350	 50.524601	 19.810190	 8.600088	 5.374139 
2.351	 50.522016	 19.809429	 8.600977	 5.374208 
2.352	 50.519441	 19.808671	 8.601862	 5.374277 
2.353	 50.516874	 19.807916	 8.602746	 5.374345 
2.354	 50.514316	 19.807163	 8.603626	 5.374413 
2.355	 50.511768	 19.806413	 8.604504	 5.374481 
2.356	 50.509230	 19.805667	 8.605378	 5.374549 
2.357	 50.506701	 19.804923	 8.606249	 5.374616 
2.358	 50.504181	 19.804181	 8.607118	 5.374683 
2.359	 50.501672	 19.803443	 8.607983	 5.374750 
2.360	 50.499171	 19.802708	 8.608846	 5.374817 
2.361	 50.496681	 19.801976	 8.609705	 5.374883 
2.362	 50.494200	 19.801246	 8.610562	 5.374949 
2.363	 50.491728	 19.800519	 8.611416	 5.375015 
2.364	 50.489266	 19.799795	 8.612266	 5.375081 
2.365	 50.486814	 19.799074	 8.613113	 5.375146 
2.366	 50.484370	 19.798356	 8.613958	 5.375211 
2.367	 50.481936	 19.797641	 8.614800	 5.375276 
2.368	 50.479511	 19.796928	 8.615639	 5.375341 
2.369	 50.477094	 19.796218	 8.616475	 5.375406 
2.370	 50.474687	 19.795510	 8.617308	 5.375470 
2.371	 50.472288	 19.794805	 8.618139	 5.375534 
2.372	 50.469897	 19.794103	 8.618967	 5.375597 
2.373	 50.467514	 19.793403	 8.619793	 5.375661 
2.374	 50.465139	 19.792705	 8.620616	 5.375724 
2.375	 50.462772	 19.792010	 8.621437	 5.375788 
2.376	 50.460412	 19.791317	 8.622255	 5.375850 
2.377	 50.458059	 19.790626	 8.623072	 5.375913 
2.378	 50.455712	 19.789937	 8.623886	 5.375976 
2.379	 50.453372	 19.789250	 8.624699	 5.376038 
2.380	 50.451038	 19.788565	 8.625509	 5.376101 
2.381	 50.448710	 19.787881	 8.626318	 5.376163 
2.382	 50.446387	 19.787199	 8.627125	 5.376225 
2.383	 50.444069	 19.786519	 8.627931	 5.376286 
2.384	 50.441755	 19.785840	 8.628736	 5.376348 
2.385	 50.439446	 19.785162	 8.629539	 5.376410 
2.386	 50.437140	 19.784485	 8.630341	 5.376471 
2.387	 50.434838	 19.783810	 8.631142	 5.376533 
2.388	 50.432539	 19.783135	 8.631943	 5.376594 
2.389	 50.430243	 19.782462	 8.632742	 5.376655 
2.390	 50.427949	 19.781789	 8.633541	 5.376716 
2.391	 50.425656	 19.781116	 8.634340	 5.376777 
2.392	 50.423366	 19.780444	 8.635139	 5.376839 
2.393	 50.421076	 19.779773	 8.635937	 5.376900 
2.394	 50.418787	 19.779101	 8.636736	 5.376961 
2.395	 50.416498	 19.778430	 8.637534	 5.377022 
2.396	 50.414208	 19.777759	 8.638333	 5.377083 
2.397	 50.411918	 19.777087	 8.639133	 5.377144 
2.398	 50.409627	 19.776416	 8.639933	 5.377205 
2.399	 50.407335	 19.775744	 8.640734	 5.377266 
2.400	 50.405040	 19.775071	 8.641536	 5.377327 
2.401	 50.402743	 19.774398	 8.642339	 5.377388 
2.402	 50.400443	 19.773724	 8.643143	 5.377450 
2.403	 50.398140	 19.773049	 8.643948	 5.377511 
2.404	 50.395833	 19.772373	 8.644756	 5.377573 
2.405	 50.393522	 19.771696	 8.645564	 5.377634 
2.406	 50.391206	 19.771017	 8.646375	 5.377696 
2.407	 50.388885	 19.770337	 8.647188	 5.377758 
2.408	 50.386560	 19.769656	 8.648003	 5.377820 
2.409	 50.384229	 19.768973	 8.648820	 5.377882 
2.410	 50.381893	 19.768289	 8.649638	 5.377944 
2.411	 50.379551	 19.767603	 8.650460	 5.378007 
2.412	 50.377203	 19.766916	 8.651283	 5.378069 
2.413	 50.374848	 19.766226	 8.652110	 5.378132 
2.414	 50.372488	 19.765535	 8.652938	 5.378195 
2.415	 50.370121	 19.764842	 8.653769	 5.378258 
2.416	 50.367748	 19.764148	 8.654603	 5.378321 
2.417	 50.365368	 19.763451	 8.655439	 5.378385 
2.418	 50.362981	 19.762752	 8.656278	 5.378448 
2.419	 50.360587	 19.762052	 8.657120	 5.378512 
2.420	 50.358185	 19.761349	 8.657964	 5.378576 
2.421	 50.355776	 19.760644	 8.658812	 5.378640 
2.422	 50.353359	 19.759937	 8.659663	 5.378705 
2.423	 50.350934	 19.759227	 8.660516	 5.378769 
2.424	 50.348500	 19.758515	 8.661374	 5.378834 
2.425	 50.346057	 19.757800	 8.662234	 5.378899 
2.426	 50.343605	 19.757083	 8.663098	 5.378965 
2.427	 50.341143	 19.756363	 8.663966	 5.379030 
2.428	 50.338671	 19.755640	 8.664838	 5.379096 
2.429	 50.336188	 19.754914	 8.665714	 5.379163 
2.430	 50.333695	 19.754185	 8.666594	 5.379229 
2.431	 50.331190	 19.753453	 8.667478	 5.379296 
2.432	 50.328674	 19.752718	 8.668367	 5.379363 
2.433	 50.326146	 19.751978	 8.669260	 5.379430 
2.434	 50.323605	 19.751236	 8.670158	 5.379498 
2.435	 50.321051	 19.750489	 8.671060	 5.379566 
2.436	 50.318483	 19.749739	 8.671968	 5.379634 
2.437	 50.315902	 19.748985	 8.672882	 5.379703 
2.438	 50.313307	 19.748227	 8.673800	 5.379772 
2.439	 50.310698	 19.747465	 8.674724	 5.379842 
2.440	 50.308074	 19.746698	 8.675653	 5.379912 
2.441	 50.305436	 19.745927	 8.676587	 5.379982 
2.442	 50.302782	 19.745152	 8.677528	 5.380053 
2.443	 50.300112	 19.744373	 8.678475	 5.380124 
2.444	 50.297427	 19.743588	 8.679427	 5.380196 
2.445	 50.294726	 19.742800	 8.680385	 5.380268 
2.446	 50.292010	 19.742007	 8.681349	 5.380340 
2.447	 50.289277	 19.741209	 8.682320	 5.380413 
2.448	 50.286528	 19.740407	 8.683296	 5.380487 
2.449	 50.283764	 19.739600	 8.684278	 5.380560 
2.450	 50.280983	 19.738788	 8.685267	 5.380634 
2.451	 50.278187	 19.737972	 8.686261	 5.380709 
2.452	 50.275374	 19.737152	 8.687262	 5.380784 
2.453	 50.272547	 19.736327	 8.688268	 5.380860 
2.454	 50.269703	 19.735497	 8.689281	 5.380935 
2.455	 50.266845	 19.734663	 8.690299	 5.381012 
2.456	 50.263971	 19.733825	 8.691323	 5.381088 
2.457	 50.261083	 19.732983	 8.692353	 5.381165 
2.458	 50.258180	 19.732136	 8.693388	 5.381243 
2.459	 50.255262	 19.731285	 8.694429	 5.381321 
2.460	 50.252330	 19.730431	 8.695476	 5.381399 
2.461	 50.249384	 19.729572	 8.696528	 5.381478 
2.462	 50.246425	 19.728709	 8.697585	 5.381557 
2.463	 50.243451	 19.727843	 8.698648	 5.381636 
2.464	 50.240465	 19.726972	 8.699716	 5.381716 
2.465	 50.237465	 19.726098	 8.700789	 5.381796 
2.466	 50.234453	 19.725221	 8.701867	 5.381877 
2.467	 50.231429	 19.724339	 8.702949	 5.381958 
2.468	 50.228392	 19.723455	 8.704037	 5.382039 
2.469	 50.225344	 19.722567	 8.705129	 5.382120 
2.470	 50.222285	 19.721676	 8.706226	 5.382202 
2.471	 50.219215	 19.720782	 8.707327	 5.382284 
2.472	 50.216135	 19.719885	 8.708432	 5.382367 
2.473	 50.213045	 19.718985	 8.709541	 5.382449 
2.474	 50.209945	 19.718083	 8.710655	 5.382532 
2.475	 50.206837	 19.717178	 8.711771	 5.382615 
2.476	 50.203721	 19.716271	 8.712892	 5.382699 
2.477	 50.200596	 19.715362	 8.714015	 5.382783 
2.478	 50.197464	 19.714451	 8.715142	 5.382866 
2.479	 50.194326	 19.713538	 8.716272	 5.382950 
2.480	 50.191181	 19.712623	 8.717404	 5.383035 
2.481	 50.188031	 19.711706	 8.718539	 5.383119 
2.482	 50.184876	 19.710789	 8.719676	 5.383204 
2.483	 50.181717	 19.709870	 8.720816	 5.383288 
2.484	 50.178554	 19.708950	 8.721957	 5.383373 
2.485	 50.175388	 19.708029	 8.723100	 5.383458 
2.486	 50.172219	 19.707108	 8.724244	 5.383543 
2.487	 50.169048	 19.706187	 8.725390	 5.383628 
2.488	 50.165877	 19.705265	 8.726536	 5.383713 
2.489	 50.162705	 19.704343	 8.727683	 5.383798 
2.490	 50.159533	 19.703421	 8.728830	 5.383883 
2.491	 50.156361	 19.702499	 8.729979	 5.383968 
2.492	 50.153191	 19.701578	 8.731127	 5.384053 
2.493	 50.150023	 19.700658	 8.732274	 5.384138 
2.494	 50.146857	 19.699738	 8.733422	 5.384223 
2.495	 50.143695	 19.698820	 8.734568	 5.384308 
2.496	 50.140535	 19.697902	 8.735715	 5.384393 
2.497	 50.137380	 19.696986	 8.736860	 5.384478 
2.498	 50.134229	 19.696071	 8.738004	 5.384563 
2.499	 50.131082	 19.695158	 8.739147	 5.384647 
2.500	 50.127941	 19.694246	 8.740289	 5.384732 
2.501	 50.124805	 19.693336	 8.741429	 5.384816 
2.502	 50.121675	 19.692427	 8.742568	 5.384900 
2.503	 50.118550	 19.691520	 8.743705	 5.384984 
2.504	 50.115431	 19.690615	 8.744841	 5.385068 
2.505	 50.112318	 19.689712	 8.745975	 5.385152 
2.506	 50.109211	 19.688811	 8.747107	 5.385235 
2.507	 50.106110	 19.687911	 8.748238	 5.385319 
2.508	 50.103014	 19.687014	 8.749367	 5.385402 
2.509	 50.099924	 19.686118	 8.750495	 5.385485 
2.510	 50.096840	 19.685223	 8.751621	 5.385568 
2.511	 50.093760	 19.684330	 8.752746	 5.385651 
2.512	 50.090686	 19.683439	 8.753869	 5.385734 
2.513	 50.087616	 19.682549	 8.754991	 5.385816 
2.514	 50.084551	 19.681661	 8.756112	 5.385899 
2.515	 50.081491	 19.680774	 8.757232	 5.385981 
2.516	 50.078435	 19.679888	 8.758350	 5.386063 
2.517	 50.075383	 19.679004	 8.759468	 5.386145 
2.518	 50.072335	 19.678121	 8.760585	 5.386227 
2.519	 50.069292	 19.677240	 8.761700	 5.386309 
2.520	 50.066253	 19.676359	 8.762814	 5.386391 
2.521	 50.063219	 19.675481	 8.763927	 5.386473 
2.522	 50.060189	 19.674603	 8.765039	 5.386554 
2.523	 50.057163	 19.673727	 8.766150	 5.386636 
2.524	 50.054142	 19.672852	 8.767260	 5.386717 
2.525	 50.051125	 19.671979	 8.768369	 5.386798 
2.526	 50.048112	 19.671107	 8.769476	 5.386879 
2.527	 50.045103	 19.670236	 8.770583	 5.386960 
2.528	 50.042098	 19.669366	 8.771689	 5.387041 
2.529	 50.039096	 19.668497	 8.772794	 5.387122 
2.530	 50.036097	 19.667629	 8.773898	 5.387203 
2.531	 50.033101	 19.666763	 8.775002	 5.387284 
2.532	 50.030107	 19.665897	 8.776106	 5.387364 
2.533	 50.027114	 19.665031	 8.777209	 5.387445 
2.534	 50.024124	 19.664166	 8.778312	 5.387525 
2.535	 50.021133	 19.663301	 8.779416	 5.387606 
2.536	 50.018144	 19.662437	 8.780520	 5.387686 
2.537	 50.015153	 19.661572	 8.781624	 5.387767 
2.538	 50.012163	 19.660707	 8.782729	 5.387847 
2.539	 50.009170	 19.659842	 8.783835	 5.387928 
2.540	 50.006176	 19.658977	 8.784943	 5.388009 
2.541	 50.003180	 19.658111	 8.786051	 5.388089 
2.542	 50.000181	 19.657244	 8.787161	 5.388170 
2.543	 49.997178	 19.656376	 8.788273	 5.388251 
2.544	 49.994171	 19.655508	 8.789387	 5.388332 
2.545	 49.991159	 19.654638	 8.790503	 5.388413 
2.546	 49.988142	 19.653766	 8.791622	 5.388494 
2.547	 49.985119	 19.652893	 8.792743	 5.388576 
2.548	 49.982090	 19.652018	 8.793867	 5.388657 
2.549	 49.979054	 19.651141	 8.794994	 5.388739 
2.550	 49.976010	 19.650263	 8.796125	 5.388821 
2.551	 49.972959	 19.649382	 8.797258	 5.388903 
2.552	 49.969899	 19.648498	 8.798396	 5.388985 
2.553	 49.966829	 19.647612	 8.799537	 5.389068 
2.554	 49.963751	 19.646724	 8.800682	 5.389151 
2.555	 49.960662	 19.645832	 8.801832	 5.389234 
2.556	 49.957563	 19.644938	 8.802986	 5.389317 
2.557	 49.954453	 19.644041	 8.804144	 5.389401 
2.558	 49.951331	 19.643140	 8.805308	 5.389485 
2.559	 49.948198	 19.642236	 8.806476	 5.389570 
2.560	 49.945053	 19.641329	 8.807649	 5.389654 
2.561	 49.941896	 19.640419	 8.808827	 5.389739 
2.562	 49.938726	 19.639505	 8.810011	 5.389825 
2.563	 49.935542	 19.638587	 8.811200	 5.389910 
2.564	 49.932345	 19.637665	 8.812395	 5.389997 
2.565	 49.929135	 19.636739	 8.813595	 5.390083 
2.566	 49.925910	 19.635810	 8.814801	 5.390170 
2.567	 49.922670	 19.634876	 8.816014	 5.390257 
2.568	 49.919415	 19.633938	 8.817232	 5.390345 
2.569	 49.916146	 19.632996	 8.818457	 5.390433 
2.570	 49.912860	 19.632050	 8.819688	 5.390521 
2.571	 49.909559	 19.631098	 8.820926	 5.390610 
2.572	 49.906241	 19.630143	 8.822170	 5.390700 
2.573	 49.902907	 19.629183	 8.823421	 5.390789 
2.574	 49.899556	 19.628218	 8.824680	 5.390880 
2.575	 49.896188	 19.627248	 8.825945	 5.390970 
2.576	 49.892803	 19.626273	 8.827217	 5.391062 
2.577	 49.889400	 19.625294	 8.828496	 5.391153 
2.578	 49.885980	 19.624309	 8.829783	 5.391245 
2.579	 49.882543	 19.623320	 8.831077	 5.391338 
2.580	 49.879087	 19.622326	 8.832378	 5.391431 
2.581	 49.875615	 19.621326	 8.833686	 5.391525 
2.582	 49.872125	 19.620322	 8.835002	 5.391619 
2.583	 49.868617	 19.619313	 8.836325	 5.391713 
2.584	 49.865093	 19.618300	 8.837654	 5.391809 
2.585	 49.861551	 19.617281	 8.838991	 5.391904 
2.586	 49.857992	 19.616258	 8.840336	 5.392000 
2.587	 49.854417	 19.615230	 8.841687	 5.392096 
2.588	 49.850825	 19.614197	 8.843045	 5.392193 
2.589	 49.847217	 19.613160	 8.844410	 5.392291 
2.590	 49.843593	 19.612118	 8.845782	 5.392389 
2.591	 49.839953	 19.611072	 8.847160	 5.392487 
2.592	 49.836298	 19.610022	 8.848545	 5.392585 
2.593	 49.832628	 19.608967	 8.849937	 5.392684 
2.594	 49.828943	 19.607909	 8.851335	 5.392784 
2.595	 49.825243	 19.606846	 8.852739	 5.392884 
2.596	 49.821529	 19.605780	 8.854149	 5.392984 
2.597	 49.817802	 19.604709	 8.855565	 5.393085 
2.598	 49.814062	 19.603635	 8.856987	 5.393186 
2.599	 49.810309	 19.602558	 8.858415	 5.393287 
2.600	 49.806543	 19.601477	 8.859848	 5.393389 
2.601	 49.802766	 19.600393	 8.861286	 5.393491 
2.602	 49.798977	 19.599305	 8.862730	 5.393594 
2.603	 49.795177	 19.598215	 8.864179	 5.393696 
2.604	 49.791367	 19.597122	 8.865632	 5.393799 
2.605	 49.787547	 19.596026	 8.867090	 5.393903 
2.606	 49.783717	 19.594928	 8.868553	 5.394006 
2.607	 49.779879	 19.593827	 8.870019	 5.394110 
2.608	 49.776032	 19.592724	 8.871490	 5.394214 
2.609	 49.772177	 19.591619	 8.872964	 5.394319 
2.610	 49.768314	 19.590511	 8.874443	 5.394423 
2.611	 49.764444	 19.589402	 8.875925	 5.394528 
2.612	 49.760568	 19.588291	 8.877410	 5.394633 
2.613	 49.756685	 19.587179	 8.878899	 5.394738 
2.614	 49.752796	 19.586064	 8.880391	 5.394843 
2.615	 49.748902	 19.584949	 8.881886	 5.394949 
2.616	 49.745002	 19.583832	 8.883384	 5.395055 
2.617	 49.741097	 19.582713	 8.884884	 5.395160 
2.618	 49.737188	 19.581594	 8.886387	 5.395266 
2.619	 49.733274	 19.580473	 8.887893	 5.395372 
2.620	 49.729355	 19.579351	 8.889402	 5.395479 
2.621	 49.725433	 19.578229	 8.890913	 5.395585 
2.622	 49.721506	 19.577105	 8.892426	 5.395692 
2.623	 49.717577	 19.575980	 8.893941	 5.395798 
2.624	 49.713643	 19.574855	 8.895459	 5.395905 
2.625	 49.709707	 19.573729	 8.896979	 5.396012 
2.626	 49.705767	 19.572602	 8.898501	 5.396118 
2.627	 49.701825	 19.571474	 8.900024	 5.396225 
2.628	 49.697880	 19.570346	 8.901550	 5.396332 
2.629	 49.693933	 19.569217	 8.903077	 5.396440 
2.630	 49.689983	 19.568088	 8.904607	 5.396547 
2.631	 49.686032	 19.566959	 8.906138	 5.396654 
2.632	 49.682078	 19.565829	 8.907670	 5.396761 
2.633	 49.678124	 19.564699	 8.909204	 5.396869 
2.634	 49.674167	 19.563568	 8.910740	 5.396976 
2.635	 49.670209	 19.562437	 8.912277	 5.397084 
2.636	 49.666250	 19.561306	 8.913815	 5.397191 
2.637	 49.662290	 19.560175	 8.915355	 5.397299 
2.638	 49.658328	 19.559044	 8.916896	 5.397406 
2.639	 49.654366	 19.557912	 8.918438	 5.397514 
2.640	 49.650402	 19.556781	 8.919982	 5.397622 
2.641	 49.646437	 19.555649	 8.921527	 5.397729 
2.642	 49.642472	 19.554517	 8.923073	 5.397837 
2.643	 49.638505	 19.553385	 8.924621	 5.397945 
2.644	 49.634538	 19.552253	 8.926169	 5.398053 
2.645	 49.630570	 19.551121	 8.927719	 5.398161 
2.646	 49.626601	 19.549989	 8.929271	 5.398269 
2.647	 49.622632	 19.548857	 8.930823	 5.398377 
2.648	 49.618662	 19.547725	 8.932376	 5.398485 
2.649	 49.614692	 19.546592	 8.933931	 5.398593 
2.650	 49.610721	 19.545460	 8.935486	 5.398701 
2.651	 49.606750	 19.544328	 8.937043	 5.398809 
2.652	 49.602779	 19.543196	 8.938600	 5.398917 
2.653	 49.598807	 19.542065	 8.940159	 5.399025 
2.654	 49.594836	 19.540933	 8.941719	 5.399133 
2.655	 49.590865	 19.539801	 8.943279	 5.399241 
2.656	 49.586894	 19.538670	 8.944840	 5.399349 
2.657	 49.582922	 19.537539	 8.946403	 5.399457 
2.658	 49.578951	 19.536408	 8.947966	 5.399565 
2.659	 49.574980	 19.535277	 8.949529	 5.399673 
2.660	 49.571010	 19.534147	 8.951094	 5.399782 
2.661	 49.567039	 19.533016	 8.952660	 5.399890 
2.662	 49.563068	 19.531886	 8.954226	 5.399998 
2.663	 49.559098	 19.530756	 8.955794	 5.400106 
2.664	 49.555127	 19.529626	 8.957362	 5.400214 
2.665	 49.551156	 19.528496	 8.958932	 5.400322 
2.666	 49.547185	 19.527367	 8.960502	 5.400431 
2.667	 49.543214	 19.526237	 8.962073	 5.400539 
2.668	 49.539243	 19.525108	 8.963646	 5.400647 
2.669	 49.535271	 19.523978	 8.965219	 5.400755 
2.670	 49.531299	 19.522849	 8.966794	 5.400863 
2.671	 49.527326	 19.521719	 8.968369	 5.400972 
2.672	 49.523353	 19.520590	 8.969946	 5.401080 
2.673	 49.519379	 19.519461	 8.971524	 5.401188 
2.674	 49.515405	 19.518331	 8.973103	 5.401297 
2.675	 49.511429	 19.517202	 8.974684	 5.401405 
2.676	 49.507453	 19.516072	 8.976266	 5.401514 
2.677	 49.503476	 19.514942	 8.977849	 5.401622 
2.678	 49.499498	 19.513812	 8.979433	 5.401731 
2.679	 49.495519	 19.512683	 8.981019	 5.401839 
2.680	 49.491539	 19.511552	 8.982606	 5.401948 
2.681	 49.487558	 19.510422	 8.984194	 5.402056 
2.682	 49.483576	 19.509292	 8.985784	 5.402165 
2.683	 49.479593	 19.508161	 8.987375	 5.402274 
2.684	 49.475608	 19.507030	 8.988968	 5.402383 
2.685	 49.471622	 19.505899	 8.990562	 5.402491 
2.686	 49.467635	 19.504768	 8.992157	 5.402600 
2.687	 49.463647	 19.503637	 8.993754	 5.402709 
2.688	 49.459657	 19.502505	 8.995353	 5.402818 
2.689	 49.455666	 19.501373	 8.996953	 5.402927 
2.690	 49.451674	 19.500241	 8.998554	 5.403036 
2.691	 49.447680	 19.499109	 9.000157	 5.403145 
2.692	 49.443685	 19.497977	 9.001761	 5.403254 
2.693	 49.439689	 19.496844	 9.003367	 5.403363 
2.694	 49.435691	 19.495711	 9.004975	 5.403473 
2.695	 49.431691	 19.494578	 9.006584	 5.403582 
2.696	 49.427690	 19.493444	 9.008194	 5.403691 
2.697	 49.423686	 19.492310	 9.009807	 5.403801 
2.698	 49.419681	 19.491175	 9.011421	 5.403910 
2.699	 49.415674	 19.490040	 9.013037	 5.404020 
2.700	 49.411664	 19.488905	 9.014656	 5.404129 
2.701	 49.407651	 19.487769	 9.016276	 5.404239 
2.702	 49.403636	 19.486632	 9.017898	 5.404349 
2.703	 49.399617	 19.485495	 9.019523	 5.404458 
2.704	 49.395596	 19.484357	 9.021149	 5.404568 
2.705	 49.391571	 19.483218	 9.022778	 5.404678 
2.706	 49.387542	 19.482078	 9.024410	 5.404789 
2.707	 49.383510	 19.480937	 9.026044	 5.404899 
2.708	 49.379473	 19.479795	 9.027681	 5.405009 
2.709	 49.375433	 19.478653	 9.029320	 5.405120 
2.710	 49.371389	 19.477509	 9.030961	 5.405230 
2.711	 49.367341	 19.476365	 9.032606	 5.405341 
2.712	 49.363288	 19.475219	 9.034253	 5.405452 
2.713	 49.359231	 19.474072	 9.035903	 5.405563 
2.714	 49.355170	 19.472924	 9.037556	 5.405674 
2.715	 49.351105	 19.471776	 9.039211	 5.405785 
2.716	 49.347036	 19.470626	 9.040869	 5.405897 
2.717	 49.342963	 19.469475	 9.042529	 5.406008 
2.718	 49.338886	 19.468324	 9.044193	 5.406120 
2.719	 49.334806	 19.467172	 9.045858	 5.406232 
2.720	 49.330723	 19.466019	 9.047526	 5.406344 
2.721	 49.326637	 19.464865	 9.049196	 5.406455 
2.722	 49.322549	 19.463711	 9.050868	 5.406567 
2.723	 49.318459	 19.462557	 9.052541	 5.406680 
2.724	 49.314367	 19.461402	 9.054217	 5.406792 
2.725	 49.310274	 19.460247	 9.055894	 5.406904 
2.726	 49.306181	 19.459092	 9.057572	 5.407016 
2.727	 49.302087	 19.457937	 9.059252	 5.407128 
2.728	 49.297993	 19.456782	 9.060932	 5.407241 
2.729	 49.293900	 19.455628	 9.062613	 5.407353 
2.730	 49.289807	 19.454474	 9.064296	 5.407465 
2.731	 49.285716	 19.453320	 9.065978	 5.407577 
2.732	 49.281627	 19.452167	 9.067661	 5.407689 
2.733	 49.277540	 19.451015	 9.069344	 5.407802 
2.734	 49.273455	 19.449864	 9.071027	 5.407914 
2.735	 49.269373	 19.448714	 9.072710	 5.408026 
2.736	 49.265294	 19.447565	 9.074393	 5.408138 
2.737	 49.261218	 19.446416	 9.076075	 5.408250 
2.738	 49.257146	 19.445269	 9.077757	 5.408361 
2.739	 49.253077	 19.444124	 9.079439	 5.408473 
2.740	 49.249013	 19.442979	 9.081120	 5.408585 
2.741	 49.244953	 19.441836	 9.082800	 5.408696 
2.742	 49.240897	 19.440694	 9.084479	 5.408808 
2.743	 49.236846	 19.439554	 9.086158	 5.408919 
2.744	 49.232799	 19.438415	 9.087836	 5.409030 
2.745	 49.228758	 19.437278	 9.089512	 5.409141 
2.746	 49.224721	 19.436142	 9.091188	 5.409252 
2.747	 49.220689	 19.435008	 9.092862	 5.409363 
2.748	 49.216663	 19.433875	 9.094536	 5.409474 
2.749	 49.212643	 19.432744	 9.096208	 5.409584 
2.750	 49.208627	 19.431615	 9.097879	 5.409695 
2.751	 49.204618	 19.430488	 9.099548	 5.409805 
2.752	 49.200615	 19.429363	 9.101216	 5.409915 
2.753	 49.196618	 19.428239	 9.102882	 5.410025 
2.754	 49.192627	 19.427117	 9.104547	 5.410135 
2.755	 49.188642	 19.425998	 9.106210	 5.410245 
2.756	 49.184664	 19.424880	 9.107872	 5.410354 
2.757	 49.180693	 19.423764	 9.109531	 5.410463 
2.758	 49.176728	 19.422651	 9.111189	 5.410573 
2.759	 49.172771	 19.421539	 9.112845	 5.410682 
2.760	 49.168820	 19.420430	 9.114499	 5.410790 
2.761	 49.164877	 19.419323	 9.116151	 5.410899 
2.762	 49.160941	 19.418218	 9.117800	 5.411007 
2.763	 49.157013	 19.417115	 9.119448	 5.411116 
2.764	 49.153092	 19.416014	 9.121093	 5.411224 
2.765	 49.149178	 19.414916	 9.122737	 5.411331 
2.766	 49.145272	 19.413820	 9.124378	 5.411439 
2.767	 49.141373	 19.412726	 9.126017	 5.411546 
2.768	 49.137481	 19.411634	 9.127655	 5.411654 
2.769	 49.133596	 19.410545	 9.129290	 5.411761 
2.770	 49.129719	 19.409457	 9.130923	 5.411868 
2.771	 49.125848	 19.408372	 9.132554	 5.411974 
2.772	 49.121984	 19.407288	 9.134183	 5.412081 
2.773	 49.118127	 19.406207	 9.135811	 5.412187 
2.774	 49.114275	 19.405127	 9.137437	 5.412293 
2.775	 49.110430	 19.404050	 9.139061	 5.412399 
2.776	 49.106590	 19.402974	 9.140684	 5.412505 
2.777	 49.102755	 19.401899	 9.142306	 5.412611 
2.778	 49.098925	 19.400826	 9.143926	 5.412717 
2.779	 49.095100	 19.399755	 9.145546	 5.412822 
2.780	 49.091279	 19.398684	 9.147165	 5.412928 
2.781	 49.087461	 19.397615	 9.148783	 5.413033 
2.782	 49.083647	 19.396547	 9.150401	 5.413138 
2.783	 49.079835	 19.395480	 9.152018	 5.413243 
2.784	 49.076026	 19.394414	 9.153636	 5.413348 
2.785	 49.072219	 19.393348	 9.155253	 5.413453 
2.786	 49.068414	 19.392283	 9.156871	 5.413558 
2.787	 49.064610	 19.391219	 9.158489	 5.413663 
2.788	 49.060806	 19.390154	 9.160108	 5.413768 
2.789	 49.057003	 19.389091	 9.161727	 5.413873 
2.790	 49.053201	 19.388027	 9.163347	 5.413978 
2.791	 49.049397	 19.386963	 9.164969	 5.414083 
2.792	 49.045594	 19.385899	 9.166591	 5.414188 
2.793	 49.041789	 19.384836	 9.168215	 5.414293 
2.794	 49.037984	 19.383772	 9.169840	 5.414398 
2.795	 49.034177	 19.382707	 9.171467	 5.414503 
2.796	 49.030368	 19.381643	 9.173096	 5.414608 
2.797	 49.026557	 19.380578	 9.174726	 5.414713 
2.798	 49.022744	 19.379512	 9.176359	 5.414818 
2.799	 49.018929	 19.378446	 9.177993	 5.414924 
2.800	 49.015111	 19.377380	 9.179629	 5.415029 
2.801	 49.011290	 19.376313	 9.181268	 5.415135 
2.802	 49.007467	 19.375245	 9.182908	 5.415240 
2.803	 49.003640	 19.374176	 9.184551	 5.415346 
2.804	 48.999810	 19.373107	 9.186196	 5.415452 
2.805	 48.995976	 19.372036	 9.187844	 5.415558 
2.806	 48.992139	 19.370965	 9.189495	 5.415664 
2.807	 48.988298	 19.369893	 9.191148	 5.415770 
2.808	 48.984453	 19.368820	 9.192803	 5.415876 
2.809	 48.980604	 19.367746	 9.194462	 5.415982 
2.810	 48.976750	 19.366671	 9.196123	 5.416089 
2.811	 48.972893	 19.365595	 9.197787	 5.416195 
2.812	 48.969030	 19.364518	 9.199454	 5.416302 
2.813	 48.965163	 19.363439	 9.201124	 5.416409 
2.814	 48.961291	 19.362359	 9.202798	 5.416516 
2.815	 48.957413	 19.361278	 9.204474	 5.416623 
2.816	 48.953530	 19.360196	 9.206154	 5.416730 
2.817	 48.949641	 19.359112	 9.207838	 5.416838 
2.818	 48.945746	 19.358026	 9.209525	 5.416946 
2.819	 48.941844	 19.356939	 9.211216	 5.417054 
2.820	 48.937935	 19.355849	 9.212912	 5.417162 
2.821	 48.934018	 19.354758	 9.214611	 5.417270 
2.822	 48.930094	 19.353665	 9.216315	 5.417378 
2.823	 48.926161	 19.352570	 9.218024	 5.417487 
2.824	 48.922220	 19.351472	 9.219737	 5.417596 
2.825	 48.918269	 19.350372	 9.221456	 5.417705 
2.826	 48.914309	 19.349269	 9.223180	 5.417815 
2.827	 48.910339	 19.348164	 9.224909	 5.417925 
2.828	 48.906358	 19.347056	 9.226644	 5.418035 
2.829	 48.902366	 19.345945	 9.228384	 5.418145 
2.830	 48.898364	 19.344832	 9.230130	 5.418256 
2.831	 48.894349	 19.343715	 9.231883	 5.418367 
2.832	 48.890323	 19.342595	 9.233642	 5.418478 
2.833	 48.886285	 19.341472	 9.235407	 5.418590 
2.834	 48.882234	 19.340345	 9.237179	 5.418702 
2.835	 48.878171	 19.339215	 9.238958	 5.418815 
2.836	 48.874094	 19.338082	 9.240743	 5.418927 
2.837	 48.870004	 19.336945	 9.242536	 5.419041 
2.838	 48.865900	 19.335804	 9.244335	 5.419154 
2.839	 48.861783	 19.334660	 9.246142	 5.419268 
2.840	 48.857652	 19.333512	 9.247956	 5.419383 
2.841	 48.853507	 19.332360	 9.249777	 5.419497 
2.842	 48.849348	 19.331205	 9.251605	 5.419612 
2.843	 48.845175	 19.330046	 9.253441	 5.419728 
2.844	 48.840988	 19.328883	 9.255285	 5.419844 
2.845	 48.836786	 19.327716	 9.257135	 5.419960 
2.846	 48.832570	 19.326546	 9.258994	 5.420077 
2.847	 48.828340	 19.325371	 9.260860	 5.420194 
2.848	 48.824097	 19.324193	 9.262733	 5.420312 
2.849	 48.819839	 19.323012	 9.264613	 5.420430 
2.850	 48.815567	 19.321826	 9.266501	 5.420548 
2.851	 48.811281	 19.320637	 9.268397	 5.420667 
2.852	 48.806983	 19.319445	 9.270299	 5.420786 
2.853	 48.802670	 19.318249	 9.272209	 5.420906 
2.854	 48.798345	 19.317049	 9.274126	 5.421026 
2.855	 48.794006	 19.315846	 9.276050	 5.421146 
2.856	 48.789654	 19.314639	 9.277981	 5.421267 
2.857	 48.785290	 19.313430	 9.279919	 5.421388 
2.858	 48.780912	 19.312216	 9.281865	 5.421509 
2.859	 48.776523	 19.311000	 9.283816	 5.421631 
2.860	 48.772120	 19.309780	 9.285775	 5.421753 
2.861	 48.767706	 19.308557	 9.287741	 5.421876 
2.862	 48.763279	 19.307331	 9.289714	 5.421999 
2.863	 48.758840	 19.306102	 9.291693	 5.422122 
2.864	 48.754389	 19.304869	 9.293679	 5.422245 
2.865	 48.749926	 19.303633	 9.295672	 5.422369 
2.866	 48.745451	 19.302394	 9.297672	 5.422494 
2.867	 48.740965	 19.301153	 9.299678	 5.422618 
2.868	 48.736466	 19.299908	 9.301691	 5.422743 
2.869	 48.731956	 19.298660	 9.303711	 5.422868 
2.870	 48.727435	 19.297409	 9.305737	 5.422994 
2.871	 48.722902	 19.296155	 9.307769	 5.423120 
2.872	 48.718357	 19.294898	 9.309809	 5.423246 
2.873	 48.713802	 19.293638	 9.311855	 5.423373 
2.874	 48.709236	 19.292376	 9.313907	 5.423500 
2.875	 48.704659	 19.291110	 9.315965	 5.423627 
2.876	 48.700071	 19.289842	 9.318030	 5.423755 
2.877	 48.695473	 19.288571	 9.320101	 5.423883 
2.878	 48.690864	 19.287298	 9.322178	 5.424011 
2.879	 48.686245	 19.286022	 9.324261	 5.424139 
2.880	 48.681617	 19.284743	 9.326350	 5.424268 
2.881	 48.676979	 19.283462	 9.328445	 5.424397 
2.882	 48.672331	 19.282179	 9.330546	 5.424527 
2.883	 48.667674	 19.280893	 9.332653	 5.424656 
2.884	 48.663008	 19.279605	 9.334765	 5.424786 
2.885	 48.658333	 19.278315	 9.336883	 5.424916 
2.886	 48.653650	 19.277022	 9.339006	 5.425047 
2.887	 48.648958	 19.275727	 9.341135	 5.425177 
2.888	 48.644258	 19.274430	 9.343269	 5.425308 
2.889	 48.639549	 19.273132	 9.345409	 5.425440 
2.890	 48.634833	 19.271831	 9.347553	 5.425571 
2.891	 48.630108	 19.270528	 9.349703	 5.425703 
2.892	 48.625376	 19.269223	 9.351858	 5.425834 
2.893	 48.620636	 19.267916	 9.354019	 5.425967 
2.894	 48.615889	 19.266608	 9.356184	 5.426099 
2.895	 48.611134	 19.265298	 9.358354	 5.426232 
2.896	 48.606371	 19.263985	 9.360529	 5.426364 
2.897	 48.601602	 19.262671	 9.362710	 5.426497 
2.898	 48.596826	 19.261356	 9.364894	 5.426631 
2.899	 48.592043	 19.260038	 9.367084	 5.426764 
2.900	 48.587253	 19.258719	 9.369279	 5.426898 
2.901	 48.582456	 19.257399	 9.371478	 5.427032 
2.902	 48.577654	 19.256077	 9.373682	 5.427166 
2.903	 48.572845	 19.254753	 9.375890	 5.427300 
2.904	 48.568030	 19.253428	 9.378103	 5.427434 
2.905	 48.563210	 19.252102	 9.380320	 5.427569 
2.906	 48.558383	 19.250774	 9.382541	 5.427704 
2.907	 48.553552	 19.249445	 9.384767	 5.427839 
2.908	 48.548714	 19.248115	 9.386997	 5.427974 
2.909	 48.543872	 19.246783	 9.389231	 5.428109 
2.910	 48.539025	 19.245451	 9.391469	 5.428244 
2.911	 48.534172	 19.244117	 9.393711	 5.428380 
2.912	 48.529315	 19.242782	 9.395957	 5.428516 
2.913	 48.524454	 19.241446	 9.398206	 5.428652 
2.914	 48.519588	 19.240109	 9.400460	 5.428788 
2.915	 48.514718	 19.238771	 9.402717	 5.428924 
2.916	 48.509845	 19.237433	 9.404978	 5.429060 
2.917	 48.504968	 19.236094	 9.407242	 5.429197 
2.918	 48.500088	 19.234754	 9.409509	 5.429333 
2.919	 48.495206	 19.233413	 9.411779	 5.429470 
2.920	 48.490321	 19.232073	 9.414052	 5.429606 
2.921	 48.485435	 19.230732	 9.416327	 5.429743 
2.922	 48.480547	 19.229390	 9.418605	 5.429880 
2.923	 48.475658	 19.228049	 9.420885	 5.430017 
2.924	 48.470768	 19.226708	 9.423168	 5.430154 
2.925	 48.465879	 19.225367	 9.425451	 5.430291 
2.926	 48.460989	 19.224026	 9.427738	 5.430428 
2.927	 48.456099	 19.222686	 9.430025	 5.430565 
2.928	 48.451211	 19.221346	 9.432314	 5.430702 
2.929	 48.446323	 19.220006	 9.434605	 5.430839 
2.930	 48.441436	 19.218667	 9.436897	 5.430976 
2.931	 48.436550	 19.217328	 9.439190	 5.431113 
2.932	 48.431666	 19.215990	 9.441484	 5.431250 
2.933	 48.426783	 19.214653	 9.443779	 5.431387 
2.934	 48.421901	 19.213316	 9.446076	 5.431523 
2.935	 48.417021	 19.211980	 9.448374	 5.431660 
2.936	 48.412143	 19.210644	 9.450672	 5.431797 
2.937	 48.407267	 19.209309	 9.452972	 5.431934 
2.938	 48.402392	 19.207975	 9.455272	 5.432071 
2.939	 48.397518	 19.206642	 9.457574	 5.432208 
2.940	 48.392647	 19.205309	 9.459877	 5.432344 
2.941	 48.387777	 19.203977	 9.462180	 5.432481 
2.942	 48.382909	 19.202645	 9.464485	 5.432618 
2.943	 48.378042	 19.201315	 9.466791	 5.432754 
2.944	 48.373177	 19.199984	 9.469098	 5.432891 
2.945	 48.368313	 19.198655	 9.471406	 5.433027 
2.946	 48.363450	 19.197326	 9.473715	 5.433164 
2.947	 48.358588	 19.195997	 9.476026	 5.433301 
2.948	 48.353727	 19.194669	 9.478338	 5.433437 
2.949	 48.348865	 19.193340	 9.480652	 5.433574 
2.950	 48.344003	 19.192012	 9.482968	 5.433710 
2.951	 48.339141	 19.190685	 9.485286	 5.433847 
2.952	 48.334278	 19.189357	 9.487607	 5.433984 
2.953	 48.329413	 19.188028	 9.489930	 5.434120 
2.954	 48.324545	 19.186700	 9.492256	 5.434257 
2.955	 48.319675	 19.185371	 9.494585	 5.434394 
2.956	 48.314802	 19.184041	 9.496917	 5.434531 
2.957	 48.309926	 19.182710	 9.499253	 5.434668 
2.958	 48.305045	 19.181379	 9.501593	 5.434805 
2.959	 48.300160	 19.180047	 9.503936	 5.434943 
2.960	 48.295270	 19.178713	 9.506284	 5.435080 
2.961	 48.290375	 19.177378	 9.508636	 5.435218 
2.962	 48.285473	 19.176042	 9.510993	 5.435356 
2.963	 48.280566	 19.174704	 9.513355	 5.435494 
2.964	 48.275651	 19.173365	 9.515722	 5.435632 
2.965	 48.270729	 19.172024	 9.518095	 5.435770 
2.966	 48.265799	 19.170681	 9.520473	 5.435909 
2.967	 48.260861	 19.169336	 9.522857	 5.436048 
2.968	 48.255912	 19.167988	 9.525248	 5.436187 
2.969	 48.250954	 19.166638	 9.527646	 5.436327 
2.970	 48.245985	 19.165285	 9.530050	 5.436467 
2.971	 48.241003	 19.163929	 9.532463	 5.436607 
2.972	 48.236009	 19.162570	 9.534884	 5.436747 
2.973	 48.231001	 19.161207	 9.537314	 5.436888 
2.974	 48.225979	 19.159840	 9.539752	 5.437030 
2.975	 48.220941	 19.158470	 9.542200	 5.437171 
2.976	 48.215887	 19.157095	 9.544658	 5.437314 
2.977	 48.210815	 19.155716	 9.547126	 5.437456 
2.978	 48.205724	 19.154332	 9.549606	 5.437600 
2.979	 48.200614	 19.152942	 9.552097	 5.437743 
2.980	 48.195483	 19.151548	 9.554600	 5.437888 
2.981	 48.190331	 19.150148	 9.557116	 5.438033 
2.982	 48.185156	 19.148742	 9.559645	 5.438179 
2.983	 48.179958	 19.147329	 9.562187	 5.438325 
2.984	 48.174735	 19.145911	 9.564744	 5.438472 
2.985	 48.169488	 19.144486	 9.567315	 5.438620 
2.986	 48.164214	 19.143054	 9.569901	 5.438768 
2.987	 48.158914	 19.141615	 9.572502	 5.438918 
2.988	 48.153586	 19.140169	 9.575120	 5.439068 
2.989	 48.148230	 19.138715	 9.577753	 5.439218 
2.990	 48.142846	 19.137254	 9.580402	 5.439370 
2.991	 48.137432	 19.135786	 9.583069	 5.439523 
2.992	 48.131988	 19.134309	 9.585752	 5.439676 
2.993	 48.126514	 19.132825	 9.588453	 5.439830 
2.994	 48.121010	 19.131332	 9.591171	 5.439985 
2.995	 48.115474	 19.129832	 9.593907	 5.440141 
2.996	 48.109907	 19.128323	 9.596661	 5.440298 
2.997	 48.104309	 19.126806	 9.599433	 5.440456 
2.998	 48.098679	 19.125280	 9.602224	 5.440615 
2.999	 48.093017	 19.123746	 9.605032	 5.440775 
3.000	 48.087323	 19.122204	 9.607860	 5.440935 
3.001	 48.081598	 19.120654	 9.610705	 5.441097 
3.002	 48.075841	 19.119095	 9.613569	 5.441259 
3.003	 48.070052	 19.117528	 9.616452	 5.441422 
3.004	 48.064232	 19.115953	 9.619353	 5.441587 
3.005	 48.058381	 19.114370	 9.622272	 5.441752 
3.006	 48.052500	 19.112779	 9.625209	 5.441918 
3.007	 48.046588	 19.111180	 9.628165	 5.442085 
3.008	 48.040647	 19.109574	 9.631138	 5.442253 
3.009	 48.034677	 19.107960	 9.634128	 5.442421 
3.010	 48.028679	 19.106338	 9.637135	 5.442591 
3.011	 48.022653	 19.104709	 9.640159	 5.442761 
3.012	 48.016600	 19.103074	 9.643200	 5.442932 
3.013	 48.010521	 19.101432	 9.646258	 5.443104 
3.014	 48.004416	 19.099783	 9.649331	 5.443277 
3.015	 47.998287	 19.098128	 9.652419	 5.443450 
3.016	 47.992134	 19.096466	 9.655523	 5.443625 
3.017	 47.985958	 19.094799	 9.658642	 5.443799 
3.018	 47.979760	 19.093126	 9.661775	 5.443975 
3.019	 47.973541	 19.091448	 9.664922	 5.444151 
3.020	 47.967302	 19.089765	 9.668082	 5.444328 
3.021	 47.961043	 19.088077	 9.671256	 5.444505 
3.022	 47.954766	 19.086385	 9.674442	 5.444683 
3.023	 47.948472	 19.084688	 9.677640	 5.444861 
3.024	 47.942162	 19.082987	 9.680850	 5.445040 
3.025	 47.935836	 19.081282	 9.684071	 5.445220 
3.026	 47.929496	 19.079574	 9.687302	 5.445400 
3.027	 47.923143	 19.077862	 9.690544	 5.445580 
3.028	 47.916777	 19.076148	 9.693796	 5.445761 
3.029	 47.910401	 19.074431	 9.697057	 5.445942 
3.030	 47.904014	 19.072711	 9.700326	 5.446123 
3.031	 47.897618	 19.070990	 9.703604	 5.446305 
3.032	 47.891214	 19.069266	 9.706890	 5.446487 
3.033	 47.884803	 19.067542	 9.710182	 5.446669 
3.034	 47.878386	 19.065815	 9.713481	 5.446851 
3.035	 47.871963	 19.064088	 9.716787	 5.447034 
3.036	 47.865536	 19.062360	 9.720099	 5.447217 
3.037	 47.859105	 19.060631	 9.723416	 5.447399 
3.038	 47.852671	 19.058902	 9.726738	 5.447583 
3.039	 47.846235	 19.057173	 9.730065	 5.447766 
3.040	 47.839797	 19.055443	 9.733396	 5.447949 
3.041	 47.833358	 19.053714	 9.736732	 5.448132 
3.042	 47.826919	 19.051985	 9.740071	 5.448316 
3.043	 47.820480	 19.050256	 9.743414	 5.448499 
3.044	 47.814040	 19.048527	 9.746761	 5.448682 
3.045	 47.807602	 19.046799	 9.750111	 5.448866 
3.046	 47.801164	 19.045072	 9.753464	 5.449049 
3.047	 47.794728	 19.043346	 9.756820	 5.449233 
3.048	 47.788293	 19.041620	 9.760179	 5.449416 
3.049	 47.781859	 19.039895	 9.763541	 5.449600 
3.050	 47.775427	 19.038170	 9.766905	 5.449783 
3.051	 47.768996	 19.036447	 9.770273	 5.449967 
3.052	 47.762566	 19.034724	 9.773644	 5.450150 
3.053	 47.756138	 19.033001	 9.777017	 5.450333 
3.054	 47.749710	 19.031279	 9.780394	 5.450517 
3.055	 47.743282	 19.029558	 9.783775	 5.450700 
3.056	 47.736853	 19.027837	 9.787160	 5.450884 
3.057	 47.730424	 19.026116	 9.790549	 5.451067 
3.058	 47.723992	 19.024394	 9.793942	 5.451251 
3.059	 47.717558	 19.022673	 9.797341	 5.451435 
3.060	 47.711120	 19.020951	 9.800745	 5.451619 
3.061	 47.704678	 19.019227	 9.804156	 5.451802 
3.062	 47.698230	 19.017503	 9.807573	 5.451987 
3.063	 47.691776	 19.015778	 9.810997	 5.452171 
3.064	 47.685314	 19.014050	 9.814428	 5.452356 
3.065	 47.678844	 19.012321	 9.817868	 5.452540 
3.066	 47.672364	 19.010590	 9.821317	 5.452726 
3.067	 47.665874	 19.008856	 9.824775	 5.452911 
3.068	 47.659373	 19.007120	 9.828243	 5.453097 
3.069	 47.652861	 19.005381	 9.831720	 5.453283 
3.070	 47.646336	 19.003639	 9.835209	 5.453469 
3.071	 47.639798	 19.001894	 9.838708	 5.453656 
3.072	 47.633246	 19.000146	 9.842218	 5.453844 
3.073	 47.626680	 18.998394	 9.845740	 5.454031 
3.074	 47.620099	 18.996639	 9.849274	 5.454220 
3.075	 47.613503	 18.994880	 9.852819	 5.454408 
3.076	 47.606892	 18.993117	 9.856377	 5.454597 
3.077	 47.600264	 18.991351	 9.859948	 5.454787 
3.078	 47.593619	 18.989580	 9.863532	 5.454977 
3.079	 47.586958	 18.987805	 9.867129	 5.455168 
3.080	 47.580279	 18.986026	 9.870740	 5.455359 
3.081	 47.573583	 18.984243	 9.874364	 5.455551 
3.082	 47.566870	 18.982455	 9.878002	 5.455743 
3.083	 47.560139	 18.980663	 9.881653	 5.455936 
3.084	 47.553391	 18.978867	 9.885318	 5.456129 
3.085	 47.546625	 18.977067	 9.888997	 5.456323 
3.086	 47.539842	 18.975262	 9.892689	 5.456517 
3.087	 47.533042	 18.973453	 9.896395	 5.456712 
3.088	 47.526224	 18.971641	 9.900115	 5.456908 
3.089	 47.519390	 18.969824	 9.903848	 5.457104 
3.090	 47.512540	 18.968003	 9.907595	 5.457300 
3.091	 47.505673	 18.966178	 9.911355	 5.457497 
3.092	 47.498792	 18.964350	 9.915127	 5.457694 
3.093	 47.491895	 18.962518	 9.918912	 5.457892 
3.094	 47.484984	 18.960682	 9.922710	 5.458091 
3.095	 47.478059	 18.958844	 9.926520	 5.458289 
3.096	 47.471121	 18.957002	 9.930341	 5.458489 
3.097	 47.464171	 18.955158	 9.934174	 5.458688 
3.098	 47.457209	 18.953311	 9.938018	 5.458888 
3.099	 47.450236	 18.951461	 9.941873	 5.459089 
3.100	 47.443253	 18.949609	 9.945738	 5.459289 
3.101	 47.436260	 18.947755	 9.949613	 5.459491 
3.102	 47.429259	 18.945899	 9.953498	 5.459692 
3.103	 47.422250	 18.944041	 9.957391	 5.459893 
3.104	 47.415234	 18.942182	 9.961293	 5.460095 
3.105	 47.408211	 18.940322	 9.965204	 5.460297 
3.106	 47.401183	 18.938460	 9.969122	 5.460500 
3.107	 47.394150	 18.936598	 9.973048	 5.460702 
3.108	 47.387113	 18.934735	 9.976981	 5.460905 
3.109	 47.380073	 18.932872	 9.980921	 5.461108 
3.110	 47.373031	 18.931009	 9.984866	 5.461311 
3.111	 47.365987	 18.929145	 9.988817	 5.461514 
3.112	 47.358942	 18.927282	 9.992774	 5.461717 
3.113	 47.351896	 18.925419	 9.996736	 5.461920 
3.114	 47.344851	 18.923556	 10.000703	 5.462123 
3.115	 47.337806	 18.921694	 10.004674	 5.462326 
3.116	 47.330763	 18.919833	 10.008649	 5.462529 
3.117	 47.323722	 18.917973	 10.012628	 5.462733 
3.118	 47.316683	 18.916114	 10.016611	 5.462936 
3.119	 47.309647	 18.914256	 10.020597	 5.463139 
3.120	 47.302614	 18.912399	 10.024586	 5.463342 
3.121	 47.295585	 18.910544	 10.028577	 5.463545 
3.122	 47.288560	 18.908690	 10.032572	 5.463748 
3.123	 47.281539	 18.906838	 10.036569	 5.463951 
3.124	 47.274521	 18.904987	 10.040569	 5.464154 
3.125	 47.267508	 18.903137	 10.044571	 5.464357 
3.126	 47.260497	 18.901289	 10.048577	 5.464559 
3.127	 47.253490	 18.899442	 10.052585	 5.464762 
3.128	 47.246485	 18.897596	 10.056597	 5.464964 
3.129	 47.239482	 18.895751	 10.060614	 5.465167 
3.130	 47.232480	 18.893906	 10.064634	 5.465370 
3.131	 47.225479	 18.892063	 10.068659	 5.465572 
3.132	 47.218476	 18.890219	 10.072689	 5.465775 
3.133	 47.211471	 18.888375	 10.076726	 5.465977 
3.134	 47.204463	 18.886531	 10.080770	 5.466180 
3.135	 47.197450	 18.884685	 10.084821	 5.466383 
3.136	 47.190431	 18.882839	 10.088881	 5.466586 
3.137	 47.183404	 18.880991	 10.092950	 5.466790 
3.138	 47.176368	 18.879141	 10.097030	 5.466993 
3.139	 47.169320	 18.877288	 10.101121	 5.467197 
3.140	 47.162260	 18.875433	 10.105225	 5.467402 
3.141	 47.155184	 18.873573	 10.109343	 5.467607 
3.142	 47.148092	 18.871710	 10.113475	 5.467812 
3.143	 47.140981	 18.869843	 10.117624	 5.468018 
3.144	 47.133850	 18.867970	 10.121789	 5.468225 
3.145	 47.126696	 18.866092	 10.125973	 5.468432 
3.146	 47.119517	 18.864208	 10.130177	 5.468640 
3.147	 47.112311	 18.862317	 10.134402	 5.468848 
3.148	 47.105077	 18.860419	 10.138649	 5.469058 
3.149	 47.097812	 18.858514	 10.142920	 5.469268 
3.150	 47.090513	 18.856600	 10.147216	 5.469480 
3.151	 47.083181	 18.854678	 10.151537	 5.469692 
3.152	 47.075811	 18.852746	 10.155886	 5.469906 
3.153	 47.068403	 18.850805	 10.160263	 5.470120 
3.154	 47.060954	 18.848854	 10.164670	 5.470336 
3.155	 47.053463	 18.846892	 10.169108	 5.470553 
3.156	 47.045928	 18.844919	 10.173577	 5.470772 
3.157	 47.038346	 18.842934	 10.178081	 5.470991 
3.158	 47.030717	 18.840937	 10.182619	 5.471213 
3.159	 47.023038	 18.838928	 10.187192	 5.471435 
3.160	 47.015308	 18.836906	 10.191802	 5.471659 
3.161	 47.007525	 18.834871	 10.196451	 5.471885 
3.162	 46.999688	 18.832822	 10.201138	 5.472112 
3.163	 46.991795	 18.830759	 10.205865	 5.472341 
3.164	 46.983846	 18.828681	 10.210632	 5.472572 
3.165	 46.975840	 18.826590	 10.215440	 5.472804 
3.166	 46.967775	 18.824483	 10.220291	 5.473038 
3.167	 46.959651	 18.822362	 10.225184	 5.473274 
3.168	 46.951467	 18.820225	 10.230121	 5.473512 
3.169	 46.943223	 18.818074	 10.235101	 5.473751 
3.170	 46.934920	 18.815907	 10.240124	 5.473992 
3.171	 46.926556	 18.813726	 10.245192	 5.474235 
3.172	 46.918133	 18.811529	 10.250303	 5.474480 
3.173	 46.909651	 18.809318	 10.255458	 5.474727 
3.174	 46.901110	 18.807091	 10.260656	 5.474975 
3.175	 46.892511	 18.804851	 10.265898	 5.475225 
3.176	 46.883856	 18.802596	 10.271182	 5.475477 
3.177	 46.875146	 18.800328	 10.276509	 5.475731 
3.178	 46.866381	 18.798046	 10.281877	 5.475986 
3.179	 46.857563	 18.795751	 10.287287	 5.476243 
3.180	 46.848693	 18.793443	 10.292737	 5.476501 
3.181	 46.839774	 18.791123	 10.298226	 5.476761 
3.182	 46.830808	 18.788791	 10.303753	 5.477023 
3.183	 46.821796	 18.786448	 10.309317	 5.477285 
3.184	 46.812740	 18.784094	 10.314918	 5.477550 
3.185	 46.803644	 18.781731	 10.320553	 5.477815 
3.186	 46.794511	 18.779358	 10.326220	 5.478082 
3.187	 46.785343	 18.776978	 10.331918	 5.478350 
3.188	 46.776144	 18.774589	 10.337646	 5.478619 
3.189	 46.766917	 18.772195	 10.343400	 5.478888 
3.190	 46.757666	 18.769795	 10.349179	 5.479159 
3.191	 46.748396	 18.767390	 10.354980	 5.479430 
3.192	 46.739109	 18.764982	 10.360802	 5.479702 
3.193	 46.729810	 18.762571	 10.366641	 5.479975 
3.194	 46.720504	 18.760160	 10.372494	 5.480248 
3.195	 46.711194	 18.757748	 10.378360	 5.480520 
3.196	 46.701886	 18.755337	 10.384235	 5.480794 
3.197	 46.692584	 18.752928	 10.390116	 5.481067 
3.198	 46.683293	 18.750523	 10.396000	 5.481339 
3.199	 46.674017	 18.748123	 10.401885	 5.481612 
3.200	 46.664760	 18.745728	 10.407768	 5.481884 
3.201	 46.655527	 18.743340	 10.413646	 5.482156 
3.202	 46.646323	 18.740961	 10.419515	 5.482427 
3.203	 46.637152	 18.738590	 10.425373	 5.482696 
3.204	 46.628018	 18.736230	 10.431218	 5.482966 
3.205	 46.618925	 18.733881	 10.437046	 5.483233 
3.206	 46.609879	 18.731545	 10.442854	 5.483500 
3.207	 46.600884	 18.729223	 10.448638	 5.483766 
3.208	 46.591944	 18.726916	 10.454397	 5.484029 
3.209	 46.583064	 18.724624	 10.460127	 5.484292 
3.210	 46.574248	 18.722350	 10.465825	 5.484552 
3.211	 46.565500	 18.720094	 10.471488	 5.484811 
3.212	 46.556824	 18.717857	 10.477114	 5.485067 
3.213	 46.548223	 18.715641	 10.482700	 5.485322 
3.214	 46.539702	 18.713445	 10.488243	 5.485574 
3.215	 46.531263	 18.711271	 10.493742	 5.485824 
3.216	 46.522909	 18.709119	 10.499193	 5.486071 
3.217	 46.514643	 18.706991	 10.504596	 5.486316 
3.218	 46.506469	 18.704887	 10.509947	 5.486559 
3.219	 46.498388	 18.702808	 10.515245	 5.486798 
3.220	 46.490401	 18.700753	 10.520489	 5.487035 
3.221	 46.482511	 18.698723	 10.525677	 5.487270 
3.222	 46.474718	 18.696719	 10.530809	 5.487501 
3.223	 46.467021	 18.694741	 10.535885	 5.487730 
3.224	 46.459421	 18.692787	 10.540904	 5.487956 
3.225	 46.451917	 18.690859	 10.545867	 5.488179 
3.226	 46.444507	 18.688955	 10.550774	 5.488399 
3.227	 46.437189	 18.687076	 10.555627	 5.488617 
3.228	 46.429962	 18.685220	 10.560426	 5.488831 
3.229	 46.422821	 18.683387	 10.565175	 5.489044 
3.230	 46.415765	 18.681576	 10.569873	 5.489254 
3.231	 46.408787	 18.679785	 10.574525	 5.489461 
3.232	 46.401883	 18.678014	 10.579133	 5.489666 
3.233	 46.395046	 18.676261	 10.583703	 5.489870 
3.234	 46.388271	 18.674523	 10.588237	 5.490071 
3.235	 46.381550	 18.672800	 10.592740	 5.490271 
3.236	 46.374874	 18.671089	 10.597218	 5.490469 
3.237	 46.368237	 18.669388	 10.601676	 5.490666 
3.238	 46.361628	 18.667694	 10.606119	 5.490862 
3.239	 46.355037	 18.666006	 10.610556	 5.491057 
3.240	 46.348456	 18.664320	 10.614992	 5.491253 
3.241	 46.341871	 18.662634	 10.619435	 5.491448 
3.242	 46.335273	 18.660945	 10.623893	 5.491643 
3.243	 46.328648	 18.659249	 10.628373	 5.491839 
3.244	 46.321985	 18.657544	 10.632885	 5.492036 
3.245	 46.315269	 18.655826	 10.637438	 5.492234 
3.246	 46.308489	 18.654091	 10.642040	 5.492434 
3.247	 46.301631	 18.652337	 10.646701	 5.492636 
3.248	 46.294680	 18.650560	 10.651430	 5.492841 
3.249	 46.287624	 18.648756	 10.656237	 5.493049 
3.250	 46.280449	 18.646922	 10.661131	 5.493260 
3.251	 46.273139	 18.645055	 10.666124	 5.493475 
3.252	 46.265681	 18.643149	 10.671225	 5.493694 
3.253	 46.258060	 18.641203	 10.676444	 5.493918 
3.254	 46.250262	 18.639212	 10.681792	 5.494147 
3.255	 46.242271	 18.637172	 10.687280	 5.494381 
3.256	 46.234074	 18.635080	 10.692918	 5.494622 
3.257	 46.225656	 18.632932	 10.698717	 5.494869 
3.258	 46.217003	 18.630725	 10.704687	 5.495122 
3.259	 46.208101	 18.628455	 10.710839	 5.495383 
3.260	 46.198936	 18.626118	 10.717183	 5.495652 
3.261	 46.189494	 18.623712	 10.723731	 5.495929 
3.262	 46.179761	 18.621232	 10.730493	 5.496214 
3.263	 46.169724	 18.618675	 10.737478	 5.496508 
3.264	 46.159368	 18.616038	 10.744700	 5.496811 
3.265	 46.148681	 18.613318	 10.752167	 5.497125 
3.266	 46.137648	 18.610511	 10.759892	 5.497448 
3.267	 46.126257	 18.607613	 10.767885	 5.497782 
3.268	 46.114494	 18.604622	 10.776156	 5.498127 
3.269	 46.102347	 18.601534	 10.784718	 5.498484 
3.270	 46.089803	 18.598347	 10.793580	 5.498852 
3.271	 46.076850	 18.595057	 10.802753	 5.499232 
3.272	 46.063477	 18.591662	 10.812248	 5.499625 
3.273	 46.049671	 18.588158	 10.822076	 5.500031 
3.274	 46.035423	 18.584544	 10.832246	 5.500450 
3.275	 46.020722	 18.580817	 10.842769	 5.500882 
3.276	 46.005559	 18.576974	 10.853653	 5.501328 
3.277	 45.989927	 18.573014	 10.864908	 5.501789 
3.278	 45.973817	 18.568935	 10.876543	 5.502263 
3.279	 45.957222	 18.564736	 10.888566	 5.502753 
3.280	 45.940138	 18.560415	 10.900985	 5.503257 
3.281	 45.922559	 18.555971	 10.913806	 5.503776 
3.282	 45.904480	 18.551403	 10.927038	 5.504311 
3.283	 45.885899	 18.546711	 10.940686	 5.504860 
3.284	 45.866812	 18.541895	 10.954757	 5.505425 
3.285	 45.847220	 18.536953	 10.969256	 5.506006 
3.286	 45.827123	 18.531887	 10.984186	 5.506602 
3.287	 45.806520	 18.526698	 10.999554	 5.507213 
3.288	 45.785415	 18.521385	 11.015361	 5.507840 
3.289	 45.763811	 18.515950	 11.031610	 5.508483 
3.290	 45.741711	 18.510394	 11.048304	 5.509140 
3.291	 45.719121	 18.504718	 11.065444	 5.509813 
3.292	 45.696045	 18.498925	 11.083032	 5.510501 
3.293	 45.672489	 18.493015	 11.101069	 5.511205 
3.294	 45.648460	 18.486992	 11.119555	 5.511923 
3.295	 45.623967	 18.480856	 11.138490	 5.512655 
3.296	 45.599016	 18.474610	 11.157875	 5.513402 
3.297	 45.573616	 18.468257	 11.177707	 5.514164 
3.298	 45.547776	 18.461799	 11.197987	 5.514939 
3.299	 45.521505	 18.455239	 11.218714	 5.515728 
3.300	 45.494812	 18.448578	 11.239885	 5.516530 
3.301	 45.467705	 18.441820	 11.261502	 5.517346 
3.302	 45.440194	 18.434966	 11.283562	 5.518175 
3.303	 45.412287	 18.428020	 11.306066	 5.519016 
3.304	 45.383991	 18.420983	 11.329013	 5.519870 
3.305	 45.355314	 18.413858	 11.352404	 5.520737 
3.306	 45.326264	 18.406646	 11.376239	 5.521616 
3.307	 45.296846	 18.399350	 11.400520	 5.522506 
3.308	 45.267066	 18.391970	 11.425249	 5.523409 
3.309	 45.236930	 18.384509	 11.450428	 5.524323 
3.310	 45.206442	 18.376967	 11.476059	 5.525249 
3.311	 45.175606	 18.369347	 11.502147	 5.526186 
3.312	 45.144426	 18.361648	 11.528694	 5.527135 
3.313	 45.112905	 18.353873	 11.555707	 5.528095 
3.314	 45.081046	 18.346022	 11.583189	 5.529066 
3.315	 45.048853	 18.338097	 11.611144	 5.530049 
3.316	 45.016329	 18.330098	 11.639577	 5.531042 
3.317	 44.983479	 18.322026	 11.668492	 5.532047 
3.318	 44.950308	 18.313884	 11.697892	 5.533062 
3.319	 44.916819	 18.305672	 11.727781	 5.534088 
3.320	 44.883019	 18.297392	 11.758163	 5.535125 
3.321	 44.848911	 18.289045	 11.789041	 5.536172 
3.322	 44.814501	 18.280633	 11.820419	 5.537230 
3.323	 44.779792	 18.272156	 11.852303	 5.538298 
3.324	 44.744788	 18.263617	 11.884696	 5.539376 
3.325	 44.709491	 18.255015	 11.917607	 5.540465 
3.326	 44.673902	 18.246351	 11.951041	 5.541563 
3.327	 44.638024	 18.237625	 11.985006	 5.542672 
3.328	 44.601855	 18.228839	 12.019513	 5.543791 
3.329	 44.565394	 18.219991	 12.054571	 5.544920 
3.330	 44.528640	 18.211082	 12.090191	 5.546059 
3.331	 44.491591	 18.202111	 12.126386	 5.547209 
3.332	 44.454242	 18.193078	 12.163169	 5.548369 
3.333	 44.416590	 18.183981	 12.200555	 5.549540 
3.334	 44.378628	 18.174820	 12.238562	 5.550721 
3.335	 44.340349	 18.165592	 12.277206	 5.551914 
3.336	 44.301746	 18.156297	 12.316509	 5.553118 
3.337	 44.262810	 18.146933	 12.356491	 5.554333 
3.338	 44.223533	 18.137497	 12.397173	 5.555561 
3.339	 44.183905	 18.127989	 12.438579	 5.556801 
3.340	 44.143916	 18.118404	 12.480733	 5.558053 
3.341	 44.103557	 18.108743	 12.523661	 5.559318 
3.342	 44.062820	 18.099002	 12.567386	 5.560597 
3.343	 44.021693	 18.089181	 12.611937	 5.561889 
3.344	 43.980170	 18.079276	 12.657337	 5.563195 
3.345	 43.938240	 18.069287	 12.703617	 5.564515 
3.346	 43.895896	 18.059211	 12.750802	 5.565850 
3.347	 43.853129	 18.049048	 12.798922	 5.567200 
3.348	 43.809934	 18.038795	 12.848002	 5.568565 
3.349	 43.766306	 18.028453	 12.898069	 5.569945 
3.350	 43.722240	 18.018020	 12.949151	 5.571341 
3.351	 43.677734	 18.007497	 13.001273	 5.572753 
3.352	 43.632789	 17.996884	 13.054456	 5.574180 
3.353	 43.587405	 17.986181	 13.108724	 5.575624 
3.354	 43.541585	 17.975389	 13.164099	 5.577083 
3.355	 43.495334	 17.964510	 13.220599	 5.578558 
3.356	 43.448658	 17.953547	 13.278242	 5.580049 
3.357	 43.401568	 17.942500	 13.337043	 5.581555 
3.358	 43.354072	 17.931374	 13.397016	 5.583077 
3.359	 43.306186	 17.920171	 13.458168	 5.584613 
3.360	 43.257924	 17.908897	 13.520510	 5.586164 
3.361	 43.209304	 17.897554	 13.584044	 5.587729 
3.362	 43.160346	 17.886149	 13.648771	 5.589308 
3.363	 43.111073	 17.874685	 13.714688	 5.590899 
3.364	 43.061507	 17.863171	 13.781791	 5.592502 
3.365	 43.011676	 17.851611	 13.850069	 5.594117 
3.366	 42.961605	 17.840011	 13.919513	 5.595743 
3.367	 42.911325	 17.828380	 13.990103	 5.597378 
3.368	 42.860866	 17.816725	 14.061822	 5.599021 
3.369	 42.810261	 17.805052	 14.134645	 5.600673 
3.370	 42.759542	 17.793369	 14.208547	 5.602331 
3.371	 42.708744	 17.781685	 14.283496	 5.603995 
3.372	 42.657903	 17.770008	 14.359458	 5.605663 
3.373	 42.607054	 17.758346	 14.436396	 5.607335 
3.374	 42.556234	 17.746707	 14.514270	 5.609009 
3.375	 42.505477	 17.735100	 14.593040	 5.610683 
3.376	 42.454822	 17.723531	 14.672655	 5.612358 
3.377	 42.404305	 17.712011	 14.753069	 5.614031 
3.378	 42.353960	 17.700546	 14.834232	 5.615701 
3.379	 42.303825	 17.689145	 14.916089	 5.617368 
3.380	 42.253935	 17.677815	 14.998583	 5.619029 
3.381	 42.204324	 17.666565	 15.081657	 5.620685 
3.382	 42.155029	 17.655401	 15.165246	 5.622332 
3.383	 42.106082	 17.644331	 15.249291	 5.623971 
3.384	 42.057518	 17.633363	 15.333724	 5.625601 
3.385	 42.009368	 17.622503	 15.418478	 5.627219 
3.386	 41.961665	 17.611758	 15.503485	 5.628825 
3.387	 41.914440	 17.601134	 15.588672	 5.630418 
3.388	 41.867722	 17.590638	 15.673970	 5.631996 
3.389	 41.821540	 17.580276	 15.759304	 5.633559 
3.390	 41.775923	 17.570053	 15.844600	 5.635106 
3.391	 41.730898	 17.559975	 15.929781	 5.636636 
3.392	 41.686489	 17.550048	 16.014775	 5.638147 
3.393	 41.642721	 17.540276	 16.099506	 5.639638 
3.394	 41.599618	 17.530663	 16.183895	 5.641110 
3.395	 41.557200	 17.521215	 16.267870	 5.642560 
3.396	 41.515488	 17.511934	 16.351356	 5.643989 
3.397	 41.474501	 17.502825	 16.434279	 5.645395 
3.398	 41.434255	 17.493890	 16.516568	 5.646778 
3.399	 41.394766	 17.485133	 16.598153	 5.648137 
3.400	 41.356048	 17.476556	 16.678964	 5.649472 
3.401	 41.318113	 17.468161	 16.758937	 5.650782 
3.402	 41.280970	 17.459950	 16.838010	 5.652066 
3.403	 41.244627	 17.451924	 16.916126	 5.653324 
3.404	 41.209091	 17.444083	 16.993227	 5.654557 
3.405	 41.174363	 17.436428	 17.069268	 5.655762 
3.406	 41.140447	 17.428959	 17.144200	 5.656942 
3.407	 41.107340	 17.421674	 17.217986	 5.658094 
3.408	 41.075039	 17.414574	 17.290593	 5.659220 
3.409	 41.043540	 17.407655	 17.361988	 5.660319 
3.410	 41.012834	 17.400916	 17.432152	 5.661392 
3.411	 40.982912	 17.394355	 17.501066	 5.662439 
3.412	 40.953762	 17.387968	 17.568720	 5.663459 
3.413	 40.925370	 17.381752	 17.635110	 5.664455 
3.414	 40.897719	 17.375703	 17.700240	 5.665425 
3.415	 40.870791	 17.369816	 17.764117	 5.666370 
3.416	 40.844566	 17.364087	 17.826758	 5.667292 
3.417	 40.819022	 17.358510	 17.888182	 5.668190 
3.418	 40.794135	 17.353081	 17.948419	 5.669065 
3.419	 40.769883	 17.347793	 18.007493	 5.669919 
3.420	 40.746239	 17.342642	 18.065443	 5.670752 
3.421	 40.723177	 17.337620	 18.122308	 5.671565 
3.422	 40.700672	 17.332723	 18.178127	 5.672359 
3.423	 40.678697	 17.327944	 18.232944	 5.673134 
3.424	 40.657226	 17.323277	 18.286804	 5.673891 
3.425	 40.636234	 17.318716	 18.339751	 5.674632 
3.426	 40.615695	 17.314257	 18.391831	 5.675358 
3.427	 40.595586	 17.309894	 18.443088	 5.676068 
3.428	 40.575885	 17.305621	 18.493561	 5.676764 
3.429	 40.556569	 17.301433	 18.543296	 5.677446 
3.430	 40.537617	 17.297327	 18.592332	 5.678116 
3.431	 40.519011	 17.293298	 18.640705	 5.678774 
3.432	 40.500731	 17.289341	 18.688454	 5.679420 
3.433	 40.482759	 17.285453	 18.735616	 5.680056 
3.434	 40.465077	 17.281630	 18.782227	 5.680681 
3.435	 40.447670	 17.277867	 18.828319	 5.681297 
3.436	 40.430521	 17.274162	 18.873927	 5.681904 
3.437	 40.413615	 17.270511	 18.919084	 5.682503 
3.438	 40.396936	 17.266911	 18.963823	 5.683093 
3.439	 40.380473	 17.263359	 19.008169	 5.683676 
3.440	 40.364211	 17.259852	 19.052155	 5.684252 
3.441	 40.348139	 17.256387	 19.095805	 5.684821 
3.442	 40.332245	 17.252962	 19.139145	 5.685384 
3.443	 40.316519	 17.249575	 19.182199	 5.685942 
3.444	 40.300951	 17.246223	 19.224988	 5.686493 
3.445	 40.285534	 17.242905	 19.267527	 5.687040 
3.446	 40.270258	 17.239619	 19.309839	 5.687582 
3.447	 40.255117	 17.236363	 19.351938	 5.688119 
3.448	 40.240102	 17.233135	 19.393845	 5.688652 
3.449	 40.225207	 17.229935	 19.435572	 5.689180 
3.450	 40.210427	 17.226760	 19.477130	 5.689705 
3.451	 40.195754	 17.223610	 19.518540	 5.690226 
3.452	 40.181184	 17.220483	 19.559808	 5.690744 
3.453	 40.166713	 17.217378	 19.600945	 5.691258 
3.454	 40.152337	 17.214295	 19.641958	 5.691769 
3.455	 40.138053	 17.211232	 19.682854	 5.692277 
3.456	 40.123857	 17.208190	 19.723641	 5.692782 
3.457	 40.109746	 17.205167	 19.764326	 5.693284 
3.458	 40.095718	 17.202163	 19.804913	 5.693783 
3.459	 40.081770	 17.199177	 19.845408	 5.694280 
3.460	 40.067898	 17.196209	 19.885820	 5.694774 
3.461	 40.054101	 17.193258	 19.926151	 5.695266 
3.462	 40.040377	 17.190323	 19.966404	 5.695755 
3.463	 40.026723	 17.187404	 20.006586	 5.696242 
3.464	 40.013138	 17.184501	 20.046698	 5.696727 
